# File: 20-11-28T181051.hot
# NOTEA     = RSP1A+GPIOLabs Pi #1 On Horn
# NOTEB     = Sdrplay 8 MHz Test
# OBSERVER  = Science Aficionado
# DEVICE    = SDRPlay RSP1A
# DATADIR   = ../data/
# SITE      = RSP1A+GPIOLabs Pi #1 On Horn
# CITY      = Green Bank
# REGION    = West Virginia
# COUNTRY   = US
# TELTYPE   = Bubble Wrap  Horn
# FRAME     = TOPO
# GAIN1     = 0.0
# GAIN2     = 12.0
# GAIN3     = 12.0
# GAIN4     = 0.0
# Count     = 360000
# CenterFreq= 1422000000.0
# Bandwidth = 8000000.0
# Duration  = 157.443649
# DeltaX    = 5859.375
# TSYS      = 200.0
# TRX       = 100.0
# TRMS      = 2.0
# TINT      = 1.0
# KPERC     = 100.0
# GAINFACT  = 1.0
# BUNIT     = Counts
# NCHAN     = 2048
# NSPEC     = 1
# NTIME     = 0
# NSAMPLES  = 0
# EPEAK     = 4.10875183718
# ERMS      = 0.995973393526
# EMJD      = 58568.808999981004 
# REFCHAN   = 1024.0
# REFSAMPL  = 256.0
# NAVE      = 600
# NMEDIAN   = 1024
# Fft_rate  = 5000
# UTC       = 2020-11-28 18:10:51.914809
# SECONDS   =       0.0000000000 
# LST       = 17:23:54.100
# AZ        = 180.0
# EL        = -40.0
# TELLON    = -79:50:22.920
# TELLAT    = +38:25:59.160
# RA        = 05:54:51.600
# DEC       = -88:27:20.600
# GALLON    = 301:14:37.50
# GALLAT    = -27:29:43.90
# ALT_SUN   = +28:18:26.5
# AZ_SUN    = +196:45:10.5
# ETAA      = 0.8
# ETAB      = 0.99
# POLANGLE  = 0.0
# TELSIZEAM = 1.0
# TELSIZEBM = 1.0
# AST_VERS  = 05.01
0000 1418001953 0.8437
0001 1418005859 0.8441
0002 1418009765 0.8427
0003 1418013671 0.8425
0004 1418017578 0.8474
0005 1418021484 0.8501
0006 1418025390 0.8491
0007 1418029296 0.8553
0008 1418033203 0.8556
0009 1418037109 0.8574
0010 1418041015 0.8591
0011 1418044921 0.8630
0012 1418048828 0.8641
0013 1418052734 0.8675
0014 1418056640 0.8709
0015 1418060546 0.8702
0016 1418064453 0.8715
0017 1418068359 0.8701
0018 1418072265 0.8719
0019 1418076171 0.8699
0020 1418080078 0.8694
0021 1418083984 0.8617
0022 1418087890 0.8577
0023 1418091796 0.8535
0024 1418095703 0.8476
0025 1418099609 0.8344
0026 1418103515 0.8276
0027 1418107421 0.8162
0028 1418111328 0.8060
0029 1418115234 0.7863
0030 1418119140 0.7683
0031 1418123046 0.7496
0032 1418126953 0.7264
0033 1418130859 0.6977
0034 1418134765 0.6715
0035 1418138671 0.6458
0036 1418142578 0.6153
0037 1418146484 0.5776
0038 1418150390 0.5432
0039 1418154296 0.5049
0040 1418158203 0.4636
0041 1418162109 0.4251
0042 1418166015 0.3815
0043 1418169921 0.3395
0044 1418173828 0.2953
0045 1418177734 0.2515
0046 1418181640 0.2108
0047 1418185546 0.1706
0048 1418189453 0.1337
0049 1418193359 0.1005
0050 1418197265 0.0723
0051 1418201171 0.0505
0052 1418205078 0.0370
0053 1418208984 0.0329
0054 1418212890 0.0404
0055 1418216796 0.0616
0056 1418220703 0.0983
0057 1418224609 0.1539
0058 1418228515 0.2305
0059 1418232421 0.3319
0060 1418236328 0.4602
0061 1418240234 0.6183
0062 1418244140 0.8119
0063 1418248046 1.0397
0064 1418251953 1.3140
0065 1418255859 1.6408
0066 1418259765 2.0134
0067 1418263671 2.4380
0068 1418267578 2.9341
0069 1418271484 3.4878
0070 1418275390 4.1414
0071 1418279296 4.8412
0072 1418283203 5.6381
0073 1418287109 6.5448
0074 1418291015 7.5405
0075 1418294921 8.6528
0076 1418298828 9.8529
0077 1418302734 11.2443
0078 1418306640 12.7378
0079 1418310546 14.3447
0080 1418314453 16.1571
0081 1418318359 18.0500
0082 1418322265 20.0874
0083 1418326171 22.3144
0084 1418330078 24.9013
0085 1418333984 27.4849
0086 1418337890 30.3560
0087 1418341796 33.4481
0088 1418345703 36.6614
0089 1418349609 40.2862
0090 1418353515 44.0645
0091 1418357421 48.1355
0092 1418361328 52.1035
0093 1418365234 56.7267
0094 1418369140 61.5007
0095 1418373046 66.8043
0096 1418376953 71.8354
0097 1418380859 77.7045
0098 1418384765 83.9146
0099 1418388671 90.3202
0100 1418392578 97.2663
0101 1418396484 103.8977
0102 1418400390 111.3956
0103 1418404296 118.6399
0104 1418408203 127.0759
0105 1418412109 135.2569
0106 1418416015 143.5102
0107 1418419921 152.5396
0108 1418423828 161.7045
0109 1418427734 171.2755
0110 1418431640 181.9406
0111 1418435546 193.2398
0112 1418439453 203.4738
0113 1418443359 214.1069
0114 1418447265 226.0318
0115 1418451171 236.9881
0116 1418455078 249.6068
0117 1418458984 262.1530
0118 1418462890 274.0394
0119 1418466796 288.2993
0120 1418470703 300.9753
0121 1418474609 315.7078
0122 1418478515 329.2962
0123 1418482421 345.5753
0124 1418486328 360.1576
0125 1418490234 373.5155
0126 1418494140 386.8013
0127 1418498046 402.5726
0128 1418501953 420.3606
0129 1418505859 434.2754
0130 1418509765 451.8367
0131 1418513671 466.2158
0132 1418517578 484.4043
0133 1418521484 498.8431
0134 1418525390 517.0779
0135 1418529296 532.8765
0136 1418533203 547.3934
0137 1418537109 563.5685
0138 1418541015 583.4341
0139 1418544921 601.0273
0140 1418548828 615.2129
0141 1418552734 632.2883
0142 1418556640 647.2593
0143 1418560546 664.4515
0144 1418564453 680.7730
0145 1418568359 697.7358
0146 1418572265 713.2368
0147 1418576171 728.5450
0148 1418580078 745.3954
0149 1418583984 760.3273
0150 1418587890 774.7002
0151 1418591796 792.4224
0152 1418595703 806.5001
0153 1418599609 822.1049
0154 1418603515 838.3625
0155 1418607421 855.0444
0156 1418611328 865.2895
0157 1418615234 881.1335
0158 1418619140 895.2802
0159 1418623046 905.4357
0160 1418626953 917.8718
0161 1418630859 933.5964
0162 1418634765 943.7518
0163 1418638671 957.6244
0164 1418642578 972.2601
0165 1418646484 981.0699
0166 1418650390 989.4518
0167 1418654296 1002.6385
0168 1418658203 1010.6825
0169 1418662109 1022.4030
0170 1418666015 1031.1555
0171 1418669921 1039.2308
0172 1418673828 1046.5247
0173 1418677734 1055.4963
0174 1418681640 1064.8306
0175 1418685546 1069.3530
0176 1418689453 1077.3667
0177 1418693359 1082.7542
0178 1418697265 1092.4122
0179 1418701171 1096.3179
0180 1418705078 1102.2156
0181 1418708984 1105.9020
0182 1418712890 1115.1658
0183 1418716796 1116.2020
0184 1418720703 1120.2120
0185 1418724609 1120.9440
0186 1418728515 1115.8307
0187 1418732421 1125.3512
0188 1418736328 1128.0823
0189 1418740234 1129.1997
0190 1418744140 1131.1396
0191 1418748046 1131.0573
0192 1418751953 1135.9493
0193 1418755859 1134.7181
0194 1418759765 1134.1877
0195 1418763671 1139.0071
0196 1418767578 1135.5488
0197 1418771484 1135.5587
0198 1418775390 1135.3821
0199 1418779296 1128.1602
0200 1418783203 1129.1414
0201 1418787109 1128.9904
0202 1418791015 1128.6503
0203 1418794921 1126.1279
0204 1418798828 1126.2097
0205 1418802734 1121.8104
0206 1418806640 1122.8982
0207 1418810546 1118.7511
0208 1418814453 1114.3026
0209 1418818359 1121.0573
0210 1418822265 1115.2766
0211 1418826171 1109.1761
0212 1418830078 1102.9243
0213 1418833984 1103.3876
0214 1418837890 1100.4935
0215 1418841796 1094.2001
0216 1418845703 1094.7968
0217 1418849609 1093.6997
0218 1418853515 1090.2754
0219 1418857421 1084.1910
0220 1418861328 1080.0096
0221 1418865234 1075.7047
0222 1418869140 1076.1761
0223 1418873046 1070.8917
0224 1418876953 1068.8037
0225 1418880859 1067.2056
0226 1418884765 1062.7592
0227 1418888671 1057.0510
0228 1418892578 1056.7794
0229 1418896484 1050.8644
0230 1418900390 1049.5314
0231 1418904296 1050.9827
0232 1418908203 1045.6462
0233 1418912109 1040.9951
0234 1418916015 1038.8976
0235 1418919921 1036.7648
0236 1418923828 1029.3635
0237 1418927734 1027.3856
0238 1418931640 1024.7870
0239 1418935546 1026.0132
0240 1418939453 1025.1091
0241 1418943359 1021.9664
0242 1418947265 1021.7405
0243 1418951171 1019.5310
0244 1418955078 1016.3293
0245 1418958984 1009.4999
0246 1418962890 1016.1482
0247 1418966796 1012.5244
0248 1418970703 1012.4415
0249 1418974609 1008.1157
0250 1418978515 1010.9728
0251 1418982421 1004.1018
0252 1418986328 999.9844
0253 1418990234 1003.6456
0254 1418994140 998.8798
0255 1418998046 999.3787
0256 1419001953 999.5296
0257 1419005859 998.6126
0258 1419009765 998.3685
0259 1419013671 997.0624
0260 1419017578 997.6288
0261 1419021484 997.0148
0262 1419025390 997.9385
0263 1419029296 1002.3349
0264 1419033203 998.7365
0265 1419037109 998.9128
0266 1419041015 993.9221
0267 1419044921 999.2445
0268 1419048828 996.7222
0269 1419052734 993.8624
0270 1419056640 996.8026
0271 1419060546 996.5981
0272 1419064453 1001.1588
0273 1419068359 1001.4423
0274 1419072265 1003.1294
0275 1419076171 1004.0771
0276 1419080078 1001.0602
0277 1419083984 1007.2325
0278 1419087890 1005.2928
0279 1419091796 1005.8986
0280 1419095703 1008.2753
0281 1419099609 1005.5075
0282 1419103515 1008.1727
0283 1419107421 1010.9377
0284 1419111328 1014.8745
0285 1419115234 1014.3932
0286 1419119140 1018.0050
0287 1419123046 1018.9410
0288 1419126953 1017.7052
0289 1419130859 1018.5466
0290 1419134765 1017.3208
0291 1419138671 1020.9404
0292 1419142578 1022.8400
0293 1419146484 1021.9706
0294 1419150390 1023.9052
0295 1419154296 1028.3375
0296 1419158203 1028.3630
0297 1419162109 1028.8716
0298 1419166015 1030.2382
0299 1419169921 1032.4346
0300 1419173828 1035.6230
0301 1419177734 1035.4198
0302 1419181640 1038.6077
0303 1419185546 1039.7328
0304 1419189453 1037.8491
0305 1419193359 1041.6575
0306 1419197265 1038.2362
0307 1419201171 1042.5651
0308 1419205078 1046.6294
0309 1419208984 1049.7858
0310 1419212890 1044.1002
0311 1419216796 1044.7631
0312 1419220703 1047.8600
0313 1419224609 1050.8975
0314 1419228515 1054.8173
0315 1419232421 1051.3589
0316 1419236328 1053.0294
0317 1419240234 1054.1337
0318 1419244140 1056.8868
0319 1419248046 1057.4113
0320 1419251953 1056.5839
0321 1419255859 1057.9709
0322 1419259765 1057.6571
0323 1419263671 1057.2289
0324 1419267578 1058.1628
0325 1419271484 1057.6390
0326 1419275390 1063.6195
0327 1419279296 1067.9951
0328 1419283203 1064.4205
0329 1419287109 1064.0771
0330 1419291015 1064.7585
0331 1419294921 1064.1732
0332 1419298828 1065.6251
0333 1419302734 1059.1458
0334 1419306640 1063.8408
0335 1419310546 1067.8757
0336 1419314453 1071.6534
0337 1419318359 1072.1100
0338 1419322265 1071.9661
0339 1419326171 1069.8300
0340 1419330078 1071.9596
0341 1419333984 1070.5585
0342 1419337890 1073.4471
0343 1419341796 1071.7357
0344 1419345703 1071.2065
0345 1419349609 1070.6472
0346 1419353515 1072.6674
0347 1419357421 1072.0852
0348 1419361328 1079.0425
0349 1419365234 1075.5643
0350 1419369140 1072.7222
0351 1419373046 1075.6897
0352 1419376953 1073.8907
0353 1419380859 1072.8041
0354 1419384765 1077.0985
0355 1419388671 1073.3690
0356 1419392578 1070.7776
0357 1419396484 1074.3165
0358 1419400390 1078.5966
0359 1419404296 1076.2695
0360 1419408203 1074.2706
0361 1419412109 1079.6785
0362 1419416015 1073.4913
0363 1419419921 1076.5762
0364 1419423828 1073.0546
0365 1419427734 1074.0997
0366 1419431640 1076.9424
0367 1419435546 1078.4913
0368 1419439453 1076.4811
0369 1419443359 1075.4899
0370 1419447265 1080.6675
0371 1419451171 1073.5206
0372 1419455078 1075.9988
0373 1419458984 1075.0618
0374 1419462890 1074.9498
0375 1419466796 1079.6400
0376 1419470703 1073.7885
0377 1419474609 1077.6488
0378 1419478515 1074.2622
0379 1419482421 1077.1320
0380 1419486328 1081.2920
0381 1419490234 1080.4149
0382 1419494140 1076.6646
0383 1419498046 1078.4808
0384 1419501953 1080.6019
0385 1419505859 1078.1497
0386 1419509765 1081.6003
0387 1419513671 1079.3782
0388 1419517578 1076.9451
0389 1419521484 1077.8092
0390 1419525390 1075.9330
0391 1419529296 1082.0197
0392 1419533203 1082.1625
0393 1419537109 1079.6971
0394 1419541015 1078.4673
0395 1419544921 1078.8534
0396 1419548828 1078.3690
0397 1419552734 1080.2581
0398 1419556640 1083.5651
0399 1419560546 1077.3199
0400 1419564453 1081.1920
0401 1419568359 1077.5692
0402 1419572265 1082.3918
0403 1419576171 1077.5477
0404 1419580078 1080.1965
0405 1419583984 1077.4994
0406 1419587890 1080.8051
0407 1419591796 1079.2118
0408 1419595703 1076.3608
0409 1419599609 1082.1731
0410 1419603515 1080.5260
0411 1419607421 1084.5070
0412 1419611328 1078.6217
0413 1419615234 1076.5117
0414 1419619140 1079.9265
0415 1419623046 1079.9462
0416 1419626953 1072.8279
0417 1419630859 1076.3390
0418 1419634765 1080.0270
0419 1419638671 1077.6622
0420 1419642578 1076.0293
0421 1419646484 1076.8016
0422 1419650390 1079.4128
0423 1419654296 1074.8374
0424 1419658203 1077.6711
0425 1419662109 1076.0747
0426 1419666015 1074.8115
0427 1419669921 1071.2723
0428 1419673828 1075.5940
0429 1419677734 1076.2373
0430 1419681640 1073.9734
0431 1419685546 1074.0321
0432 1419689453 1067.3882
0433 1419693359 1069.3396
0434 1419697265 1071.0682
0435 1419701171 1069.7454
0436 1419705078 1067.2935
0437 1419708984 1068.2629
0438 1419712890 1065.9957
0439 1419716796 1059.8553
0440 1419720703 1063.7924
0441 1419724609 1063.1443
0442 1419728515 1063.1176
0443 1419732421 1060.3955
0444 1419736328 1059.5928
0445 1419740234 1060.1859
0446 1419744140 1058.5255
0447 1419748046 1061.2769
0448 1419751953 1056.7168
0449 1419755859 1058.4188
0450 1419759765 1056.0011
0451 1419763671 1051.3208
0452 1419767578 1056.0085
0453 1419771484 1055.5857
0454 1419775390 1054.7753
0455 1419779296 1050.5657
0456 1419783203 1053.4971
0457 1419787109 1049.2629
0458 1419791015 1046.9290
0459 1419794921 1046.7501
0460 1419798828 1045.3318
0461 1419802734 1044.0804
0462 1419806640 1043.2721
0463 1419810546 1043.5164
0464 1419814453 1042.0526
0465 1419818359 1049.4691
0466 1419822265 1041.0107
0467 1419826171 1038.6210
0468 1419830078 1035.1984
0469 1419833984 1037.3405
0470 1419837890 1038.1038
0471 1419841796 1031.7035
0472 1419845703 1030.8276
0473 1419849609 1032.5994
0474 1419853515 1032.7682
0475 1419857421 1033.6224
0476 1419861328 1033.2728
0477 1419865234 1033.4086
0478 1419869140 1032.4314
0479 1419873046 1033.0245
0480 1419876953 1030.5149
0481 1419880859 1029.3136
0482 1419884765 1024.5345
0483 1419888671 1029.5179
0484 1419892578 1026.6338
0485 1419896484 1028.2983
0486 1419900390 1024.6761
0487 1419904296 1022.1973
0488 1419908203 1023.1411
0489 1419912109 1025.8180
0490 1419916015 1021.4134
0491 1419919921 1023.9329
0492 1419923828 1017.2899
0493 1419927734 1021.3871
0494 1419931640 1020.3269
0495 1419935546 1022.4252
0496 1419939453 1018.5169
0497 1419943359 1016.5405
0498 1419947265 1019.4550
0499 1419951171 1020.7410
0500 1419955078 1020.7952
0501 1419958984 1017.8284
0502 1419962890 1015.7613
0503 1419966796 1016.2293
0504 1419970703 1017.7597
0505 1419974609 1017.7708
0506 1419978515 1014.5746
0507 1419982421 1017.3291
0508 1419986328 1016.0796
0509 1419990234 1015.4402
0510 1419994140 1018.4054
0511 1419998046 1021.8054
0512 1420001953 1016.7372
0513 1420005859 1015.2394
0514 1420009765 1016.6965
0515 1420013671 1020.4202
0516 1420017578 1016.6052
0517 1420021484 1018.8800
0518 1420025390 1015.7395
0519 1420029296 1016.4180
0520 1420033203 1017.8785
0521 1420037109 1017.0219
0522 1420041015 1016.9159
0523 1420044921 1020.8407
0524 1420048828 1017.0546
0525 1420052734 1018.6299
0526 1420056640 1021.6901
0527 1420060546 1021.1535
0528 1420064453 1017.4750
0529 1420068359 1021.9586
0530 1420072265 1018.4227
0531 1420076171 1023.5466
0532 1420080078 1021.3215
0533 1420083984 1018.2002
0534 1420087890 1021.3563
0535 1420091796 1024.8969
0536 1420095703 1019.9888
0537 1420099609 1020.3582
0538 1420103515 1020.6063
0539 1420107421 1021.5320
0540 1420111328 1024.8984
0541 1420115234 1022.8204
0542 1420119140 1026.0984
0543 1420123046 1025.6606
0544 1420126953 1028.7180
0545 1420130859 1022.1018
0546 1420134765 1017.5604
0547 1420138671 1023.9027
0548 1420142578 1022.9272
0549 1420146484 1019.0800
0550 1420150390 1016.7854
0551 1420154296 1017.6520
0552 1420158203 1021.0714
0553 1420162109 1021.7268
0554 1420166015 1020.2277
0555 1420169921 1020.5519
0556 1420173828 1018.7603
0557 1420177734 1019.9408
0558 1420181640 1020.1840
0559 1420185546 1017.1105
0560 1420189453 1018.9332
0561 1420193359 1020.0684
0562 1420197265 1018.5843
0563 1420201171 1017.1880
0564 1420205078 1020.3913
0565 1420208984 1016.0230
0566 1420212890 1018.5181
0567 1420216796 1018.3146
0568 1420220703 1017.3118
0569 1420224609 1012.6113
0570 1420228515 1016.5438
0571 1420232421 1010.1714
0572 1420236328 1013.2724
0573 1420240234 1011.9789
0574 1420244140 1016.8300
0575 1420248046 1012.3070
0576 1420251953 1015.7325
0577 1420255859 1011.4230
0578 1420259765 1012.1537
0579 1420263671 1011.6468
0580 1420267578 1008.2585
0581 1420271484 1013.6739
0582 1420275390 1012.3271
0583 1420279296 1010.7283
0584 1420283203 1008.9064
0585 1420287109 1011.0397
0586 1420291015 1007.2842
0587 1420294921 1004.9359
0588 1420298828 1004.1284
0589 1420302734 1005.0201
0590 1420306640 1002.7047
0591 1420310546 1005.0569
0592 1420314453 1001.3948
0593 1420318359 1005.3216
0594 1420322265 1005.9419
0595 1420326171 1002.2796
0596 1420330078 1004.1957
0597 1420333984 998.7578
0598 1420337890 1000.8997
0599 1420341796 998.9105
0600 1420345703 999.7963
0601 1420349609 1003.2550
0602 1420353515 1001.6942
0603 1420357421 1003.0494
0604 1420361328 1002.7158
0605 1420365234 1002.2062
0606 1420369140 998.2798
0607 1420373046 996.6464
0608 1420376953 995.2841
0609 1420380859 995.3301
0610 1420384765 994.7222
0611 1420388671 993.0677
0612 1420392578 994.8587
0613 1420396484 997.7943
0614 1420400390 992.0806
0615 1420404296 990.8419
0616 1420408203 992.9240
0617 1420412109 991.4515
0618 1420416015 990.5952
0619 1420419921 989.2494
0620 1420423828 989.8693
0621 1420427734 989.9452
0622 1420431640 986.8845
0623 1420435546 989.5731
0624 1420439453 983.0579
0625 1420443359 984.7714
0626 1420447265 989.8359
0627 1420451171 986.5482
0628 1420455078 982.8831
0629 1420458984 984.1006
0630 1420462890 982.2755
0631 1420466796 985.4546
0632 1420470703 985.2486
0633 1420474609 986.4961
0634 1420478515 985.8942
0635 1420482421 984.1561
0636 1420486328 980.5829
0637 1420490234 979.7211
0638 1420494140 986.0557
0639 1420498046 985.7134
0640 1420501953 984.6492
0641 1420505859 980.4781
0642 1420509765 985.1139
0643 1420513671 984.8314
0644 1420517578 986.9653
0645 1420521484 985.8729
0646 1420525390 988.4153
0647 1420529296 985.3795
0648 1420533203 980.4987
0649 1420537109 981.9038
0650 1420541015 984.9439
0651 1420544921 984.3177
0652 1420548828 987.3473
0653 1420552734 983.2181
0654 1420556640 984.6426
0655 1420560546 986.1100
0656 1420564453 989.1306
0657 1420568359 986.9780
0658 1420572265 985.1012
0659 1420576171 992.1149
0660 1420580078 985.2159
0661 1420583984 981.5837
0662 1420587890 987.3792
0663 1420591796 986.0530
0664 1420595703 984.5634
0665 1420599609 985.7280
0666 1420603515 988.9313
0667 1420607421 981.3372
0668 1420611328 986.8107
0669 1420615234 988.9582
0670 1420619140 987.7011
0671 1420623046 983.4495
0672 1420626953 982.2388
0673 1420630859 982.1556
0674 1420634765 981.8572
0675 1420638671 986.9933
0676 1420642578 986.2673
0677 1420646484 984.6710
0678 1420650390 984.8463
0679 1420654296 984.7485
0680 1420658203 985.9076
0681 1420662109 987.1718
0682 1420666015 983.8759
0683 1420669921 983.1078
0684 1420673828 983.5117
0685 1420677734 980.4891
0686 1420681640 979.7527
0687 1420685546 981.6544
0688 1420689453 981.4993
0689 1420693359 980.7523
0690 1420697265 982.2851
0691 1420701171 984.3414
0692 1420705078 979.5380
0693 1420708984 979.8004
0694 1420712890 980.4834
0695 1420716796 980.9354
0696 1420720703 978.7010
0697 1420724609 981.9916
0698 1420728515 980.4634
0699 1420732421 975.1183
0700 1420736328 978.2518
0701 1420740234 976.5671
0702 1420744140 975.0811
0703 1420748046 978.0482
0704 1420751953 973.0131
0705 1420755859 973.6379
0706 1420759765 976.0112
0707 1420763671 969.5738
0708 1420767578 973.3796
0709 1420771484 972.3600
0710 1420775390 968.4126
0711 1420779296 970.1342
0712 1420783203 970.8016
0713 1420787109 971.4269
0714 1420791015 967.7875
0715 1420794921 966.6661
0716 1420798828 971.4607
0717 1420802734 969.8459
0718 1420806640 968.7151
0719 1420810546 965.2495
0720 1420814453 965.8052
0721 1420818359 963.9187
0722 1420822265 968.1919
0723 1420826171 965.8136
0724 1420830078 968.7213
0725 1420833984 966.6946
0726 1420837890 959.0377
0727 1420841796 959.4345
0728 1420845703 965.8993
0729 1420849609 959.8495
0730 1420853515 965.0032
0731 1420857421 964.4559
0732 1420861328 968.3079
0733 1420865234 964.0278
0734 1420869140 966.8236
0735 1420873046 965.8091
0736 1420876953 961.2494
0737 1420880859 965.2958
0738 1420884765 962.0424
0739 1420888671 966.6987
0740 1420892578 964.4042
0741 1420896484 966.2564
0742 1420900390 963.7561
0743 1420904296 965.8709
0744 1420908203 961.3580
0745 1420912109 965.6195
0746 1420916015 967.7902
0747 1420919921 964.5410
0748 1420923828 968.9988
0749 1420927734 967.0760
0750 1420931640 967.0071
0751 1420935546 967.5165
0752 1420939453 968.4727
0753 1420943359 968.1382
0754 1420947265 968.9885
0755 1420951171 972.6216
0756 1420955078 971.0655
0757 1420958984 972.0128
0758 1420962890 971.3940
0759 1420966796 972.1650
0760 1420970703 972.9050
0761 1420974609 977.5925
0762 1420978515 977.9471
0763 1420982421 974.7786
0764 1420986328 979.4185
0765 1420990234 977.1513
0766 1420994140 981.3893
0767 1420998046 981.2712
0768 1421001953 982.0474
0769 1421005859 982.2623
0770 1421009765 984.7273
0771 1421013671 987.4715
0772 1421017578 984.1888
0773 1421021484 984.6056
0774 1421025390 985.9335
0775 1421029296 987.2114
0776 1421033203 992.0668
0777 1421037109 990.1127
0778 1421041015 990.4658
0779 1421044921 990.7183
0780 1421048828 989.9457
0781 1421052734 994.0131
0782 1421056640 993.2160
0783 1421060546 992.9960
0784 1421064453 994.5985
0785 1421068359 995.1882
0786 1421072265 997.7614
0787 1421076171 1003.4233
0788 1421080078 997.6259
0789 1421083984 1002.7241
0790 1421087890 1001.2148
0791 1421091796 1005.0298
0792 1421095703 1006.1409
0793 1421099609 1005.2672
0794 1421103515 1005.3588
0795 1421107421 1005.6007
0796 1421111328 1005.3887
0797 1421115234 1003.3647
0798 1421119140 1010.9590
0799 1421123046 1010.1477
0800 1421126953 1011.1134
0801 1421130859 1008.2659
0802 1421134765 1009.1555
0803 1421138671 1012.2584
0804 1421142578 1007.2860
0805 1421146484 1011.7896
0806 1421150390 1010.6816
0807 1421154296 1012.0627
0808 1421158203 1013.0859
0809 1421162109 1011.4316
0810 1421166015 1012.6634
0811 1421169921 1014.0882
0812 1421173828 1016.3774
0813 1421177734 1016.4146
0814 1421181640 1014.7677
0815 1421185546 1016.7562
0816 1421189453 1017.6417
0817 1421193359 1017.9451
0818 1421197265 1020.2436
0819 1421201171 1014.4984
0820 1421205078 1008.2419
0821 1421208984 1013.0092
0822 1421212890 1014.0085
0823 1421216796 1013.8129
0824 1421220703 1014.3436
0825 1421224609 1011.1967
0826 1421228515 1012.1436
0827 1421232421 1013.3585
0828 1421236328 1008.1163
0829 1421240234 1014.5589
0830 1421244140 1009.8120
0831 1421248046 1009.0876
0832 1421251953 1011.1367
0833 1421255859 1008.8762
0834 1421259765 1006.2205
0835 1421263671 1004.7278
0836 1421267578 1005.4117
0837 1421271484 1005.2347
0838 1421275390 1005.0698
0839 1421279296 1003.8440
0840 1421283203 1001.1322
0841 1421287109 998.3565
0842 1421291015 1001.1341
0843 1421294921 998.4688
0844 1421298828 1000.3372
0845 1421302734 997.3815
0846 1421306640 994.1942
0847 1421310546 995.2361
0848 1421314453 993.9164
0849 1421318359 992.0522
0850 1421322265 990.9905
0851 1421326171 994.1948
0852 1421330078 992.2129
0853 1421333984 989.6545
0854 1421337890 989.0587
0855 1421341796 990.5454
0856 1421345703 989.8753
0857 1421349609 986.9708
0858 1421353515 989.4218
0859 1421357421 983.4124
0860 1421361328 986.3353
0861 1421365234 982.1035
0862 1421369140 985.8505
0863 1421373046 982.1761
0864 1421376953 981.4786
0865 1421380859 978.5490
0866 1421384765 977.2946
0867 1421388671 980.4417
0868 1421392578 978.8333
0869 1421396484 976.7792
0870 1421400390 974.8082
0871 1421404296 975.4407
0872 1421408203 977.2568
0873 1421412109 975.8088
0874 1421416015 976.4456
0875 1421419921 973.9097
0876 1421423828 972.2852
0877 1421427734 978.0484
0878 1421431640 978.2443
0879 1421435546 978.3844
0880 1421439453 977.3221
0881 1421443359 977.2120
0882 1421447265 972.8234
0883 1421451171 976.1661
0884 1421455078 975.6458
0885 1421458984 971.0186
0886 1421462890 975.0044
0887 1421466796 975.4163
0888 1421470703 976.2949
0889 1421474609 978.3223
0890 1421478515 974.5554
0891 1421482421 975.6709
0892 1421486328 980.0446
0893 1421490234 977.1887
0894 1421494140 975.9080
0895 1421498046 982.1926
0896 1421501953 979.9469
0897 1421505859 983.0090
0898 1421509765 982.5113
0899 1421513671 978.3341
0900 1421517578 982.8094
0901 1421521484 981.4807
0902 1421525390 984.8133
0903 1421529296 990.6572
0904 1421533203 987.7271
0905 1421537109 988.9211
0906 1421541015 990.4647
0907 1421544921 993.4288
0908 1421548828 998.5845
0909 1421552734 996.3470
0910 1421556640 998.4224
0911 1421560546 998.0936
0912 1421564453 997.9273
0913 1421568359 1000.5519
0914 1421572265 999.3283
0915 1421576171 1002.9541
0916 1421580078 1002.1382
0917 1421583984 1004.2525
0918 1421587890 1001.5800
0919 1421591796 1002.7948
0920 1421595703 1006.0815
0921 1421599609 1011.2369
0922 1421603515 1009.3512
0923 1421607421 1011.5842
0924 1421611328 1012.5226
0925 1421615234 1013.7612
0926 1421619140 1011.9777
0927 1421623046 1009.9436
0928 1421626953 1021.8965
0929 1421630859 1019.3555
0930 1421634765 1021.6269
0931 1421638671 1021.8676
0932 1421642578 1020.0120
0933 1421646484 1022.2755
0934 1421650390 1024.7698
0935 1421654296 1025.3956
0936 1421658203 1027.4327
0937 1421662109 1026.4932
0938 1421666015 1028.7894
0939 1421669921 1025.9510
0940 1421673828 1025.2559
0941 1421677734 1028.2947
0942 1421681640 1028.4841
0943 1421685546 1028.1895
0944 1421689453 1031.8434
0945 1421693359 1029.2963
0946 1421697265 1035.5913
0947 1421701171 1031.5131
0948 1421705078 1034.3778
0949 1421708984 1035.7500
0950 1421712890 1035.3331
0951 1421716796 1037.8896
0952 1421720703 1033.0446
0953 1421724609 1031.7502
0954 1421728515 1032.9395
0955 1421732421 1032.6997
0956 1421736328 1032.3640
0957 1421740234 1034.4637
0958 1421744140 1037.6660
0959 1421748046 1032.4501
0960 1421751953 1033.8197
0961 1421755859 1033.1024
0962 1421759765 1035.0692
0963 1421763671 1031.4490
0964 1421767578 1034.6952
0965 1421771484 1036.4064
0966 1421775390 1030.5922
0967 1421779296 1032.0370
0968 1421783203 1028.4995
0969 1421787109 1025.8673
0970 1421791015 1029.1855
0971 1421794921 1024.1820
0972 1421798828 1023.4941
0973 1421802734 1025.6188
0974 1421806640 1026.4664
0975 1421810546 1022.5395
0976 1421814453 1021.2971
0977 1421818359 1018.1967
0978 1421822265 1017.5858
0979 1421826171 1018.2958
0980 1421830078 1018.5051
0981 1421833984 1016.7526
0982 1421837890 1014.6047
0983 1421841796 1013.9861
0984 1421845703 1011.2006
0985 1421849609 1009.4551
0986 1421853515 1009.3203
0987 1421857421 1007.8458
0988 1421861328 1003.6328
0989 1421865234 1003.1060
0990 1421869140 1001.8875
0991 1421873046 1003.4648
0992 1421876953 1003.2950
0993 1421880859 999.9557
0994 1421884765 1001.0474
0995 1421888671 996.9130
0996 1421892578 997.3678
0997 1421896484 997.7651
0998 1421900390 993.8849
0999 1421904296 992.3215
1000 1421908203 994.8190
1001 1421912109 990.4466
1002 1421916015 988.7427
1003 1421919921 988.8249
1004 1421923828 990.1976
1005 1421927734 992.9398
1006 1421931640 988.9442
1007 1421935546 982.4307
1008 1421939453 983.9109
1009 1421943359 983.8473
1010 1421947265 983.4480
1011 1421951171 984.1176
1012 1421955078 981.7349
1013 1421958984 979.4454
1014 1421962890 978.2410
1015 1421966796 981.7448
1016 1421970703 977.0690
1017 1421974609 981.6299
1018 1421978515 978.0908
1019 1421982421 977.8897
1020 1421986328 977.4073
1021 1421990234 986.5009
1022 1421994140 983.9578
1023 1421998046 1018.4756
1024 1422001953 1095.4065
1025 1422005859 1016.3084
1026 1422009765 985.2703
1027 1422013671 983.2837
1028 1422017578 981.5959
1029 1422021484 975.0476
1030 1422025390 973.3430
1031 1422029296 975.7731
1032 1422033203 979.0739
1033 1422037109 978.5330
1034 1422041015 978.3825
1035 1422044921 979.8713
1036 1422048828 979.3741
1037 1422052734 978.5608
1038 1422056640 978.6462
1039 1422060546 981.6761
1040 1422064453 980.0558
1041 1422068359 981.0427
1042 1422072265 981.9147
1043 1422076171 982.4338
1044 1422080078 981.9491
1045 1422083984 982.7280
1046 1422087890 982.2681
1047 1422091796 985.2198
1048 1422095703 983.4679
1049 1422099609 983.2330
1050 1422103515 984.9403
1051 1422107421 989.2279
1052 1422111328 991.0536
1053 1422115234 995.0178
1054 1422119140 992.8100
1055 1422123046 994.2969
1056 1422126953 996.7156
1057 1422130859 994.5190
1058 1422134765 1000.1167
1059 1422138671 996.5331
1060 1422142578 1001.5986
1061 1422146484 1000.7259
1062 1422150390 1005.9523
1063 1422154296 1005.7997
1064 1422158203 1003.6571
1065 1422162109 1004.1124
1066 1422166015 1003.6555
1067 1422169921 1008.3591
1068 1422173828 1010.2737
1069 1422177734 1013.3864
1070 1422181640 1009.0558
1071 1422185546 1011.2754
1072 1422189453 1009.1721
1073 1422193359 1013.3956
1074 1422197265 1008.5693
1075 1422201171 1013.9175
1076 1422205078 1016.9719
1077 1422208984 1013.2404
1078 1422212890 1011.6223
1079 1422216796 1015.7656
1080 1422220703 1022.6344
1081 1422224609 1020.3072
1082 1422228515 1021.9907
1083 1422232421 1021.7540
1084 1422236328 1024.2310
1085 1422240234 1024.9333
1086 1422244140 1019.3989
1087 1422248046 1023.2516
1088 1422251953 1025.0002
1089 1422255859 1025.8267
1090 1422259765 1021.7656
1091 1422263671 1023.3682
1092 1422267578 1024.0990
1093 1422271484 1025.0739
1094 1422275390 1025.1959
1095 1422279296 1025.2896
1096 1422283203 1023.3232
1097 1422287109 1025.7095
1098 1422291015 1023.3299
1099 1422294921 1021.2709
1100 1422298828 1020.6472
1101 1422302734 1025.1863
1102 1422306640 1021.9880
1103 1422310546 1021.9883
1104 1422314453 1019.4004
1105 1422318359 1016.9761
1106 1422322265 1015.2292
1107 1422326171 1016.9180
1108 1422330078 1018.5856
1109 1422333984 1018.5861
1110 1422337890 1019.2162
1111 1422341796 1015.6167
1112 1422345703 1011.8502
1113 1422349609 1014.8108
1114 1422353515 1008.7892
1115 1422357421 1010.0232
1116 1422361328 1009.2752
1117 1422365234 1010.0450
1118 1422369140 1004.3012
1119 1422373046 1004.3657
1120 1422376953 1003.6572
1121 1422380859 1008.9152
1122 1422384765 1004.0287
1123 1422388671 1000.5610
1124 1422392578 998.8263
1125 1422396484 997.7445
1126 1422400390 998.3035
1127 1422404296 994.8322
1128 1422408203 993.6720
1129 1422412109 992.0984
1130 1422416015 993.6495
1131 1422419921 991.0311
1132 1422423828 995.1037
1133 1422427734 993.0197
1134 1422431640 986.2448
1135 1422435546 981.4863
1136 1422439453 982.5901
1137 1422443359 980.3882
1138 1422447265 982.2336
1139 1422451171 977.5686
1140 1422455078 978.9222
1141 1422458984 978.9213
1142 1422462890 978.9271
1143 1422466796 974.8257
1144 1422470703 976.0330
1145 1422474609 975.4287
1146 1422478515 974.0781
1147 1422482421 967.6579
1148 1422486328 973.4785
1149 1422490234 972.2502
1150 1422494140 969.1459
1151 1422498046 963.2105
1152 1422501953 963.6569
1153 1422505859 968.1868
1154 1422509765 966.2128
1155 1422513671 966.8347
1156 1422517578 966.7216
1157 1422521484 963.8029
1158 1422525390 964.6923
1159 1422529296 965.4916
1160 1422533203 961.7508
1161 1422537109 965.6215
1162 1422541015 959.8347
1163 1422544921 962.2637
1164 1422548828 962.6070
1165 1422552734 961.0262
1166 1422556640 958.6922
1167 1422560546 963.5160
1168 1422564453 958.6640
1169 1422568359 957.8101
1170 1422572265 958.3229
1171 1422576171 960.3171
1172 1422580078 959.5956
1173 1422583984 959.5759
1174 1422587890 958.2230
1175 1422591796 962.5220
1176 1422595703 963.4092
1177 1422599609 964.6568
1178 1422603515 961.7770
1179 1422607421 963.1426
1180 1422611328 960.8777
1181 1422615234 966.6240
1182 1422619140 967.6142
1183 1422623046 965.6891
1184 1422626953 969.2617
1185 1422630859 968.7777
1186 1422634765 964.6857
1187 1422638671 967.2499
1188 1422642578 970.6100
1189 1422646484 970.1184
1190 1422650390 969.4290
1191 1422654296 972.1133
1192 1422658203 971.2083
1193 1422662109 967.7561
1194 1422666015 971.6676
1195 1422669921 971.4379
1196 1422673828 975.0328
1197 1422677734 977.0374
1198 1422681640 976.1067
1199 1422685546 977.1041
1200 1422689453 978.0333
1201 1422693359 976.2345
1202 1422697265 979.8286
1203 1422701171 981.9770
1204 1422705078 980.2184
1205 1422708984 983.1756
1206 1422712890 985.2770
1207 1422716796 986.1575
1208 1422720703 984.5176
1209 1422724609 986.5322
1210 1422728515 989.2599
1211 1422732421 990.6939
1212 1422736328 990.6091
1213 1422740234 989.7236
1214 1422744140 992.3774
1215 1422748046 990.2200
1216 1422751953 994.6781
1217 1422755859 992.0350
1218 1422759765 994.0953
1219 1422763671 996.6117
1220 1422767578 995.5568
1221 1422771484 990.4500
1222 1422775390 993.9108
1223 1422779296 992.1794
1224 1422783203 995.5240
1225 1422787109 996.1851
1226 1422791015 993.1510
1227 1422794921 997.5066
1228 1422798828 994.7338
1229 1422802734 998.6246
1230 1422806640 998.5937
1231 1422810546 998.4268
1232 1422814453 994.1236
1233 1422818359 996.6492
1234 1422822265 999.4588
1235 1422826171 996.7335
1236 1422830078 994.1442
1237 1422833984 993.9562
1238 1422837890 996.0381
1239 1422841796 994.4650
1240 1422845703 996.1004
1241 1422849609 993.8397
1242 1422853515 998.1062
1243 1422857421 993.4239
1244 1422861328 995.4193
1245 1422865234 996.2874
1246 1422869140 990.4284
1247 1422873046 993.4794
1248 1422876953 994.0591
1249 1422880859 992.0137
1250 1422884765 988.1649
1251 1422888671 988.6358
1252 1422892578 992.4180
1253 1422896484 989.5889
1254 1422900390 989.9553
1255 1422904296 990.8870
1256 1422908203 990.3104
1257 1422912109 984.2427
1258 1422916015 986.8065
1259 1422919921 982.8572
1260 1422923828 983.3455
1261 1422927734 982.1449
1262 1422931640 979.9962
1263 1422935546 979.8502
1264 1422939453 979.6230
1265 1422943359 979.1619
1266 1422947265 972.9205
1267 1422951171 977.2291
1268 1422955078 975.1057
1269 1422958984 976.1572
1270 1422962890 969.1926
1271 1422966796 973.9158
1272 1422970703 970.0443
1273 1422974609 974.4507
1274 1422978515 970.0004
1275 1422982421 968.2119
1276 1422986328 967.8883
1277 1422990234 966.7991
1278 1422994140 968.0480
1279 1422998046 968.2330
1280 1423001953 965.6898
1281 1423005859 961.8946
1282 1423009765 960.0956
1283 1423013671 956.6119
1284 1423017578 962.8066
1285 1423021484 959.4029
1286 1423025390 957.7920
1287 1423029296 956.6989
1288 1423033203 957.5305
1289 1423037109 956.7582
1290 1423041015 956.3721
1291 1423044921 953.9041
1292 1423048828 952.8597
1293 1423052734 954.9216
1294 1423056640 951.3395
1295 1423060546 950.7115
1296 1423064453 950.4879
1297 1423068359 951.1317
1298 1423072265 951.1231
1299 1423076171 945.5024
1300 1423080078 945.7138
1301 1423083984 944.7963
1302 1423087890 944.5573
1303 1423091796 948.3200
1304 1423095703 949.2710
1305 1423099609 949.9518
1306 1423103515 942.8480
1307 1423107421 944.7430
1308 1423111328 943.4461
1309 1423115234 950.0997
1310 1423119140 947.2949
1311 1423123046 946.0905
1312 1423126953 942.7877
1313 1423130859 947.5979
1314 1423134765 946.9863
1315 1423138671 945.6434
1316 1423142578 946.8325
1317 1423146484 942.7592
1318 1423150390 945.9767
1319 1423154296 945.3053
1320 1423158203 945.1160
1321 1423162109 945.5181
1322 1423166015 945.4553
1323 1423169921 945.2405
1324 1423173828 946.3752
1325 1423177734 945.9420
1326 1423181640 948.3608
1327 1423185546 949.0870
1328 1423189453 948.0683
1329 1423193359 948.6429
1330 1423197265 947.5155
1331 1423201171 946.1243
1332 1423205078 948.5746
1333 1423208984 949.1130
1334 1423212890 951.7892
1335 1423216796 954.5068
1336 1423220703 949.7586
1337 1423224609 952.4749
1338 1423228515 953.6616
1339 1423232421 954.5856
1340 1423236328 949.5234
1341 1423240234 955.9413
1342 1423244140 955.2066
1343 1423248046 953.9769
1344 1423251953 955.3313
1345 1423255859 953.0812
1346 1423259765 956.6140
1347 1423263671 952.5117
1348 1423267578 957.6875
1349 1423271484 956.3473
1350 1423275390 957.1979
1351 1423279296 955.3417
1352 1423283203 956.7388
1353 1423287109 958.2243
1354 1423291015 956.8531
1355 1423294921 960.1965
1356 1423298828 959.5552
1357 1423302734 958.4678
1358 1423306640 961.5793
1359 1423310546 958.9573
1360 1423314453 960.7456
1361 1423318359 957.1268
1362 1423322265 957.8356
1363 1423326171 964.7256
1364 1423330078 963.5337
1365 1423333984 959.6797
1366 1423337890 960.1938
1367 1423341796 960.7974
1368 1423345703 959.9055
1369 1423349609 960.3630
1370 1423353515 961.3013
1371 1423357421 958.3779
1372 1423361328 961.3321
1373 1423365234 966.3024
1374 1423369140 958.5797
1375 1423373046 961.5356
1376 1423376953 961.9315
1377 1423380859 959.7753
1378 1423384765 961.6836
1379 1423388671 963.2312
1380 1423392578 963.6964
1381 1423396484 958.6207
1382 1423400390 961.3593
1383 1423404296 959.9203
1384 1423408203 961.6550
1385 1423412109 961.3406
1386 1423416015 964.0608
1387 1423419921 963.0714
1388 1423423828 961.3503
1389 1423427734 961.5844
1390 1423431640 959.4041
1391 1423435546 959.0779
1392 1423439453 960.4155
1393 1423443359 962.7303
1394 1423447265 959.7474
1395 1423451171 958.9390
1396 1423455078 958.9413
1397 1423458984 961.5395
1398 1423462890 966.3101
1399 1423466796 963.6339
1400 1423470703 960.7530
1401 1423474609 955.8334
1402 1423478515 960.1178
1403 1423482421 956.9670
1404 1423486328 957.8466
1405 1423490234 959.0756
1406 1423494140 960.0911
1407 1423498046 962.0970
1408 1423501953 958.9655
1409 1423505859 957.8255
1410 1423509765 958.0181
1411 1423513671 955.5706
1412 1423517578 956.5166
1413 1423521484 954.2713
1414 1423525390 957.3183
1415 1423529296 957.8989
1416 1423533203 958.8422
1417 1423537109 961.0228
1418 1423541015 957.3669
1419 1423544921 960.7654
1420 1423548828 954.9952
1421 1423552734 956.9797
1422 1423556640 958.0964
1423 1423560546 958.0461
1424 1423564453 958.1351
1425 1423568359 956.5492
1426 1423572265 961.3538
1427 1423576171 958.3765
1428 1423580078 958.9037
1429 1423583984 959.1292
1430 1423587890 961.2388
1431 1423591796 958.7617
1432 1423595703 957.4348
1433 1423599609 958.5481
1434 1423603515 963.0653
1435 1423607421 957.0693
1436 1423611328 958.3540
1437 1423615234 961.1473
1438 1423619140 960.5901
1439 1423623046 964.1700
1440 1423626953 963.4881
1441 1423630859 961.3356
1442 1423634765 963.4830
1443 1423638671 963.4451
1444 1423642578 963.7124
1445 1423646484 966.1216
1446 1423650390 967.1697
1447 1423654296 966.5948
1448 1423658203 963.1223
1449 1423662109 966.1025
1450 1423666015 968.8322
1451 1423669921 967.6885
1452 1423673828 966.4033
1453 1423677734 972.3076
1454 1423681640 969.7696
1455 1423685546 968.5355
1456 1423689453 970.0880
1457 1423693359 972.3958
1458 1423697265 972.9658
1459 1423701171 969.0292
1460 1423705078 974.8219
1461 1423708984 970.5591
1462 1423712890 974.2091
1463 1423716796 975.0073
1464 1423720703 976.4633
1465 1423724609 973.9658
1466 1423728515 972.1446
1467 1423732421 974.7037
1468 1423736328 977.0684
1469 1423740234 977.5388
1470 1423744140 979.7590
1471 1423748046 979.8296
1472 1423751953 982.5398
1473 1423755859 981.9787
1474 1423759765 980.3115
1475 1423763671 980.9013
1476 1423767578 979.3803
1477 1423771484 976.5795
1478 1423775390 979.1346
1479 1423779296 983.3893
1480 1423783203 984.5364
1481 1423787109 982.4544
1482 1423791015 981.3640
1483 1423794921 982.8077
1484 1423798828 983.5558
1485 1423802734 988.0054
1486 1423806640 991.3188
1487 1423810546 987.7229
1488 1423814453 988.2762
1489 1423818359 986.3340
1490 1423822265 985.0057
1491 1423826171 984.7545
1492 1423830078 984.8741
1493 1423833984 989.3300
1494 1423837890 986.0746
1495 1423841796 981.8452
1496 1423845703 988.4970
1497 1423849609 983.6666
1498 1423853515 986.7809
1499 1423857421 988.0815
1500 1423861328 987.6273
1501 1423865234 988.4052
1502 1423869140 987.4466
1503 1423873046 988.4789
1504 1423876953 992.8913
1505 1423880859 987.8326
1506 1423884765 987.7039
1507 1423888671 983.0295
1508 1423892578 984.6528
1509 1423896484 984.9941
1510 1423900390 987.6808
1511 1423904296 987.7465
1512 1423908203 988.5151
1513 1423912109 988.5815
1514 1423916015 984.7806
1515 1423919921 982.8300
1516 1423923828 985.4869
1517 1423927734 984.0399
1518 1423931640 979.9454
1519 1423935546 983.9075
1520 1423939453 984.6074
1521 1423943359 985.8871
1522 1423947265 984.0436
1523 1423951171 984.6606
1524 1423955078 985.3746
1525 1423958984 985.0939
1526 1423962890 987.4377
1527 1423966796 984.4248
1528 1423970703 982.0725
1529 1423974609 985.0809
1530 1423978515 978.0450
1531 1423982421 981.2176
1532 1423986328 985.9955
1533 1423990234 983.4418
1534 1423994140 977.6478
1535 1423998046 983.0674
1536 1424001953 993.4491
1537 1424005859 981.8569
1538 1424009765 979.7932
1539 1424013671 981.3167
1540 1424017578 983.5718
1541 1424021484 980.7009
1542 1424025390 980.9498
1543 1424029296 982.3612
1544 1424033203 979.5515
1545 1424037109 983.3022
1546 1424041015 984.5765
1547 1424044921 978.7823
1548 1424048828 982.2750
1549 1424052734 980.9232
1550 1424056640 984.0492
1551 1424060546 980.5634
1552 1424064453 983.6548
1553 1424068359 985.1965
1554 1424072265 982.8617
1555 1424076171 979.9884
1556 1424080078 984.5419
1557 1424083984 983.4527
1558 1424087890 981.9790
1559 1424091796 985.8417
1560 1424095703 985.1950
1561 1424099609 986.4819
1562 1424103515 985.7488
1563 1424107421 991.1623
1564 1424111328 986.6456
1565 1424115234 986.7845
1566 1424119140 988.3844
1567 1424123046 989.8743
1568 1424126953 987.0059
1569 1424130859 990.1030
1570 1424134765 989.4370
1571 1424138671 990.6178
1572 1424142578 990.4396
1573 1424146484 992.6953
1574 1424150390 993.8018
1575 1424154296 993.1729
1576 1424158203 990.7805
1577 1424162109 994.3462
1578 1424166015 993.0055
1579 1424169921 997.1872
1580 1424173828 999.3849
1581 1424177734 997.8851
1582 1424181640 997.3000
1583 1424185546 1005.0873
1584 1424189453 1000.2908
1585 1424193359 996.3965
1586 1424197265 998.1508
1587 1424201171 1000.4455
1588 1424205078 1003.0688
1589 1424208984 1001.3734
1590 1424212890 1005.6816
1591 1424216796 1003.5655
1592 1424220703 1008.2856
1593 1424224609 1007.9958
1594 1424228515 1008.7589
1595 1424232421 1007.1329
1596 1424236328 1009.4172
1597 1424240234 1011.4931
1598 1424244140 1010.1095
1599 1424248046 1010.7167
1600 1424251953 1013.6747
1601 1424255859 1012.5740
1602 1424259765 1015.4921
1603 1424263671 1011.4928
1604 1424267578 1015.8887
1605 1424271484 1014.8120
1606 1424275390 1019.9944
1607 1424279296 1021.4007
1608 1424283203 1019.9058
1609 1424287109 1019.2639
1610 1424291015 1020.7305
1611 1424294921 1022.1146
1612 1424298828 1020.5989
1613 1424302734 1021.6660
1614 1424306640 1023.5695
1615 1424310546 1023.5397
1616 1424314453 1022.7769
1617 1424318359 1020.6612
1618 1424322265 1026.0222
1619 1424326171 1024.7352
1620 1424330078 1026.3048
1621 1424333984 1027.0959
1622 1424337890 1026.2981
1623 1424341796 1027.5216
1624 1424345703 1024.9716
1625 1424349609 1029.0524
1626 1424353515 1027.5586
1627 1424357421 1027.9968
1628 1424361328 1026.4523
1629 1424365234 1026.2050
1630 1424369140 1028.6190
1631 1424373046 1032.3678
1632 1424376953 1027.5331
1633 1424380859 1027.1677
1634 1424384765 1026.6299
1635 1424388671 1026.7755
1636 1424392578 1029.1257
1637 1424396484 1030.4100
1638 1424400390 1030.2844
1639 1424404296 1029.4156
1640 1424408203 1031.6703
1641 1424412109 1031.3656
1642 1424416015 1027.7432
1643 1424419921 1031.2133
1644 1424423828 1029.4810
1645 1424427734 1032.0284
1646 1424431640 1028.8961
1647 1424435546 1028.4878
1648 1424439453 1029.8940
1649 1424443359 1033.1759
1650 1424447265 1026.7926
1651 1424451171 1029.0214
1652 1424455078 1029.0342
1653 1424458984 1031.1785
1654 1424462890 1024.1545
1655 1424466796 1026.1299
1656 1424470703 1028.8872
1657 1424474609 1028.2603
1658 1424478515 1028.7836
1659 1424482421 1028.7288
1660 1424486328 1025.4139
1661 1424490234 1024.2556
1662 1424494140 1022.8005
1663 1424498046 1024.1226
1664 1424501953 1026.5594
1665 1424505859 1022.3669
1666 1424509765 1023.9951
1667 1424513671 1031.2008
1668 1424517578 1024.2965
1669 1424521484 1023.4077
1670 1424525390 1024.4617
1671 1424529296 1024.4532
1672 1424533203 1024.1615
1673 1424537109 1026.8020
1674 1424541015 1029.2715
1675 1424544921 1025.5005
1676 1424548828 1020.8125
1677 1424552734 1022.7691
1678 1424556640 1026.2495
1679 1424560546 1023.4968
1680 1424564453 1024.3915
1681 1424568359 1021.8604
1682 1424572265 1020.1888
1683 1424576171 1023.9528
1684 1424580078 1023.2469
1685 1424583984 1025.0160
1686 1424587890 1022.8992
1687 1424591796 1021.5698
1688 1424595703 1023.2648
1689 1424599609 1022.3787
1690 1424603515 1022.2913
1691 1424607421 1020.1168
1692 1424611328 1015.4514
1693 1424615234 1020.7258
1694 1424619140 1020.7437
1695 1424623046 1019.2889
1696 1424626953 1014.5581
1697 1424630859 1017.3519
1698 1424634765 1020.8658
1699 1424638671 1020.0353
1700 1424642578 1019.9700
1701 1424646484 1018.9552
1702 1424650390 1017.8296
1703 1424654296 1016.9390
1704 1424658203 1014.4825
1705 1424662109 1014.3562
1706 1424666015 1015.8745
1707 1424669921 1016.7859
1708 1424673828 1014.3339
1709 1424677734 1014.3134
1710 1424681640 1013.8224
1711 1424685546 1014.0803
1712 1424689453 1012.5381
1713 1424693359 1012.9114
1714 1424697265 1010.1423
1715 1424701171 1010.4519
1716 1424705078 1007.0216
1717 1424708984 1009.0939
1718 1424712890 1006.2070
1719 1424716796 1006.4081
1720 1424720703 1006.4246
1721 1424724609 1007.7038
1722 1424728515 1007.0693
1723 1424732421 1004.9758
1724 1424736328 1000.4845
1725 1424740234 1005.8256
1726 1424744140 1007.8431
1727 1424748046 1002.5676
1728 1424751953 1006.4668
1729 1424755859 1000.9894
1730 1424759765 998.1885
1731 1424763671 996.5310
1732 1424767578 997.2340
1733 1424771484 995.3125
1734 1424775390 997.6899
1735 1424779296 996.5571
1736 1424783203 993.9938
1737 1424787109 992.2425
1738 1424791015 989.0842
1739 1424794921 985.5307
1740 1424798828 985.7953
1741 1424802734 985.7263
1742 1424806640 983.5782
1743 1424810546 981.8191
1744 1424814453 980.5417
1745 1424818359 981.8318
1746 1424822265 978.7078
1747 1424826171 982.2242
1748 1424830078 976.3967
1749 1424833984 974.6428
1750 1424837890 972.8945
1751 1424841796 974.2106
1752 1424845703 973.4590
1753 1424849609 972.2874
1754 1424853515 968.4548
1755 1424857421 969.3094
1756 1424861328 967.2021
1757 1424865234 963.9360
1758 1424869140 963.2665
1759 1424873046 958.7319
1760 1424876953 960.0433
1761 1424880859 958.6569
1762 1424884765 955.8401
1763 1424888671 956.1481
1764 1424892578 952.8061
1765 1424896484 952.8224
1766 1424900390 955.1340
1767 1424904296 949.5918
1768 1424908203 948.2295
1769 1424912109 950.2356
1770 1424916015 947.1076
1771 1424919921 945.0242
1772 1424923828 942.3444
1773 1424927734 945.9482
1774 1424931640 947.9273
1775 1424935546 946.1121
1776 1424939453 941.8903
1777 1424943359 940.3638
1778 1424947265 938.3851
1779 1424951171 939.7505
1780 1424955078 938.9723
1781 1424958984 937.7810
1782 1424962890 936.6554
1783 1424966796 939.9495
1784 1424970703 939.6569
1785 1424974609 941.8094
1786 1424978515 938.8998
1787 1424982421 940.8367
1788 1424986328 938.4103
1789 1424990234 941.1074
1790 1424994140 942.1825
1791 1424998046 940.1337
1792 1425001953 946.3185
1793 1425005859 989.4587
1794 1425009765 989.9429
1795 1425013671 943.7170
1796 1425017578 944.6229
1797 1425021484 944.1917
1798 1425025390 944.4863
1799 1425029296 947.8454
1800 1425033203 948.9805
1801 1425037109 947.2006
1802 1425041015 950.3491
1803 1425044921 954.1104
1804 1425048828 955.6536
1805 1425052734 955.7531
1806 1425056640 958.3464
1807 1425060546 955.5798
1808 1425064453 958.6050
1809 1425068359 963.7001
1810 1425072265 965.8985
1811 1425076171 969.7606
1812 1425080078 976.7875
1813 1425083984 977.5389
1814 1425087890 976.7239
1815 1425091796 976.8467
1816 1425095703 982.8008
1817 1425099609 986.5358
1818 1425103515 988.0530
1819 1425107421 988.8033
1820 1425111328 993.8807
1821 1425115234 995.7181
1822 1425119140 1000.7305
1823 1425123046 1005.8785
1824 1425126953 1005.0690
1825 1425130859 1010.1804
1826 1425134765 1009.8893
1827 1425138671 1012.8241
1828 1425142578 1019.7196
1829 1425146484 1019.5713
1830 1425150390 1021.3455
1831 1425154296 1026.6818
1832 1425158203 1026.8451
1833 1425162109 1030.2609
1834 1425166015 1038.2440
1835 1425169921 1039.6263
1836 1425173828 1047.8982
1837 1425177734 1044.9714
1838 1425181640 1046.2257
1839 1425185546 1050.2305
1840 1425189453 1054.1069
1841 1425193359 1057.4984
1842 1425197265 1050.7379
1843 1425201171 1059.3428
1844 1425205078 1062.6409
1845 1425208984 1061.5465
1846 1425212890 1061.6101
1847 1425216796 1064.4904
1848 1425220703 1061.3224
1849 1425224609 1065.6908
1850 1425228515 1069.8810
1851 1425232421 1065.1438
1852 1425236328 1066.4558
1853 1425240234 1068.8065
1854 1425244140 1070.7919
1855 1425248046 1065.8677
1856 1425251953 1069.0409
1857 1425255859 1068.2834
1858 1425259765 1062.6797
1859 1425263671 1064.3567
1860 1425267578 1059.9330
1861 1425271484 1060.3370
1862 1425275390 1057.2189
1863 1425279296 1052.3112
1864 1425283203 1050.2014
1865 1425287109 1046.8795
1866 1425291015 1039.5778
1867 1425294921 1037.7197
1868 1425298828 1032.9148
1869 1425302734 1030.4565
1870 1425306640 1024.1820
1871 1425310546 1018.4097
1872 1425314453 1012.8691
1873 1425318359 1006.5524
1874 1425322265 1000.5396
1875 1425326171 996.0663
1876 1425330078 985.0137
1877 1425333984 974.2830
1878 1425337890 969.0090
1879 1425341796 963.4337
1880 1425345703 950.6780
1881 1425349609 940.7454
1882 1425353515 928.3564
1883 1425357421 921.2980
1884 1425361328 910.6147
1885 1425365234 897.7650
1886 1425369140 887.4628
1887 1425373046 876.4918
1888 1425376953 866.9510
1889 1425380859 852.6494
1890 1425384765 840.7737
1891 1425388671 829.1606
1892 1425392578 817.9763
1893 1425396484 801.8114
1894 1425400390 788.0493
1895 1425404296 776.0079
1896 1425408203 761.9635
1897 1425412109 746.2699
1898 1425416015 732.4881
1899 1425419921 716.3541
1900 1425423828 703.3425
1901 1425427734 686.4566
1902 1425431640 672.0903
1903 1425435546 658.6547
1904 1425439453 641.2804
1905 1425443359 627.2043
1906 1425447265 611.5727
1907 1425451171 596.3644
1908 1425455078 577.8276
1909 1425458984 565.2943
1910 1425462890 549.2721
1911 1425466796 531.8182
1912 1425470703 515.8272
1913 1425474609 499.3821
1914 1425478515 484.2851
1915 1425482421 469.1730
1916 1425486328 454.6848
1917 1425490234 438.9861
1918 1425494140 424.9202
1919 1425498046 408.5460
1920 1425501953 393.5646
1921 1425505859 380.7498
1922 1425509765 366.8491
1923 1425513671 351.1800
1924 1425517578 338.4132
1925 1425521484 324.2014
1926 1425525390 310.8190
1927 1425529296 298.2990
1928 1425533203 284.2500
1929 1425537109 271.3526
1930 1425541015 259.2495
1931 1425544921 247.9688
1932 1425548828 235.7537
1933 1425552734 224.5528
1934 1425556640 212.6639
1935 1425560546 201.6236
1936 1425564453 191.8677
1937 1425568359 181.7155
1938 1425572265 171.9211
1939 1425576171 162.6254
1940 1425580078 153.2724
1941 1425583984 144.3680
1942 1425587890 135.4991
1943 1425591796 127.5294
1944 1425595703 119.7065
1945 1425599609 112.2465
1946 1425603515 105.0128
1947 1425607421 97.7758
1948 1425611328 91.1458
1949 1425615234 85.3160
1950 1425619140 78.9429
1951 1425623046 73.5263
1952 1425626953 68.1288
1953 1425630859 62.9368
1954 1425634765 58.3048
1955 1425638671 53.7122
1956 1425642578 49.4236
1957 1425646484 45.2714
1958 1425650390 41.5907
1959 1425654296 38.0067
1960 1425658203 34.7067
1961 1425662109 31.4477
1962 1425666015 28.6497
1963 1425669921 25.8922
1964 1425673828 23.5395
1965 1425677734 21.0994
1966 1425681640 18.9652
1967 1425685546 17.0781
1968 1425689453 15.2282
1969 1425693359 13.5368
1970 1425697265 12.0181
1971 1425701171 10.5810
1972 1425705078 9.3248
1973 1425708984 8.1754
1974 1425712890 7.1055
1975 1425716796 6.1665
1976 1425720703 5.3444
1977 1425724609 4.5674
1978 1425728515 3.8979
1979 1425732421 3.3025
1980 1425736328 2.7666
1981 1425740234 2.2971
1982 1425744140 1.8977
1983 1425748046 1.5513
1984 1425751953 1.2460
1985 1425755859 0.9847
1986 1425759765 0.7662
1987 1425763671 0.5832
1988 1425767578 0.4389
1989 1425771484 0.3145
1990 1425775390 0.2196
1991 1425779296 0.1471
1992 1425783203 0.0946
1993 1425787109 0.0596
1994 1425791015 0.0397
1995 1425794921 0.0324
1996 1425798828 0.0362
1997 1425802734 0.0492
1998 1425806640 0.0697
1999 1425810546 0.0964
2000 1425814453 0.1277
2001 1425818359 0.1630
2002 1425822265 0.2008
2003 1425826171 0.2395
2004 1425830078 0.2820
2005 1425833984 0.3233
2006 1425837890 0.3628
2007 1425841796 0.4040
2008 1425845703 0.4428
2009 1425849609 0.4798
2010 1425853515 0.5183
2011 1425857421 0.5517
2012 1425861328 0.5843
2013 1425865234 0.6137
2014 1425869140 0.6437
2015 1425873046 0.6657
2016 1425876953 0.6903
2017 1425880859 0.7127
2018 1425884765 0.7344
2019 1425888671 0.7533
2020 1425892578 0.7665
2021 1425896484 0.7779
2022 1425900390 0.7942
2023 1425904296 0.8027
2024 1425908203 0.8136
2025 1425912109 0.8202
2026 1425916015 0.8265
2027 1425919921 0.8306
2028 1425923828 0.8360
2029 1425927734 0.8385
2030 1425931640 0.8397
2031 1425935546 0.8423
2032 1425939453 0.8440
2033 1425943359 0.8443
2034 1425947265 0.8425
2035 1425951171 0.8452
2036 1425955078 0.8465
2037 1425958984 0.8460
2038 1425962890 0.8424
2039 1425966796 0.8416
2040 1425970703 0.8414
2041 1425974609 0.8390
2042 1425978515 0.8420
2043 1425982421 0.8407
2044 1425986328 0.8395
2045 1425990234 0.8393
2046 1425994140 0.8399
2047 1425998046 0.8394
