# File: 20-11-28T180537.hot
# NOTEA     = RSP1A+GPIOLabs Pi #1 On Horn
# NOTEB     = Sdrplay 8 MHz Test
# OBSERVER  = Science Aficionado
# DEVICE    = SDRPlay RSP1A
# DATADIR   = ../data/
# SITE      = RSP1A+GPIOLabs Pi #1 On Horn
# CITY      = Green Bank
# REGION    = West Virginia
# COUNTRY   = US
# TELTYPE   = Bubble Wrap  Horn
# FRAME     = TOPO
# GAIN1     = 0.0
# GAIN2     = 12.0
# GAIN3     = 12.0
# GAIN4     = 0.0
# Count     = 360000
# CenterFreq= 1422000000.0
# Bandwidth = 8000000.0
# Duration  = 157.283187
# DeltaX    = 5859.375
# TSYS      = 200.0
# TRX       = 100.0
# TRMS      = 2.0
# TINT      = 1.0
# KPERC     = 100.0
# GAINFACT  = 1.0
# BUNIT     = Counts
# NCHAN     = 2048
# NSPEC     = 1
# NTIME     = 0
# NSAMPLES  = 0
# EPEAK     = 4.10875183718
# ERMS      = 0.995973393526
# EMJD      = 58568.808999981004 
# REFCHAN   = 1024.0
# REFSAMPL  = 256.0
# NAVE      = 600
# NMEDIAN   = 1024
# Fft_rate  = 5000
# UTC       = 2020-11-28 18:05:37.265990
# SECONDS   =       0.0000000000 
# LST       = 17:18:38.590
# AZ        = 180.0
# EL        = -40.0
# TELLON    = -79:50:22.920
# TELLAT    = +38:25:59.160
# RA        = 05:49:34.270
# DEC       = -88:27:39.300
# GALLON    = 301:15:32.90
# GALLAT    = -27:31:43.60
# ALT_SUN   = +28:35:31.1
# AZ_SUN    = +195:24:15.8
# ETAA      = 0.8
# ETAB      = 0.99
# POLANGLE  = 0.0
# TELSIZEAM = 1.0
# TELSIZEBM = 1.0
# AST_VERS  = 05.01
0000 1418001953 0.8322
0001 1418005859 0.8331
0002 1418009765 0.8353
0003 1418013671 0.8341
0004 1418017578 0.8363
0005 1418021484 0.8430
0006 1418025390 0.8438
0007 1418029296 0.8450
0008 1418033203 0.8447
0009 1418037109 0.8490
0010 1418041015 0.8504
0011 1418044921 0.8541
0012 1418048828 0.8547
0013 1418052734 0.8560
0014 1418056640 0.8575
0015 1418060546 0.8595
0016 1418064453 0.8599
0017 1418068359 0.8594
0018 1418072265 0.8603
0019 1418076171 0.8590
0020 1418080078 0.8548
0021 1418083984 0.8526
0022 1418087890 0.8511
0023 1418091796 0.8432
0024 1418095703 0.8350
0025 1418099609 0.8300
0026 1418103515 0.8187
0027 1418107421 0.8056
0028 1418111328 0.7894
0029 1418115234 0.7760
0030 1418119140 0.7608
0031 1418123046 0.7375
0032 1418126953 0.7170
0033 1418130859 0.6912
0034 1418134765 0.6650
0035 1418138671 0.6372
0036 1418142578 0.6072
0037 1418146484 0.5732
0038 1418150390 0.5361
0039 1418154296 0.5000
0040 1418158203 0.4592
0041 1418162109 0.4181
0042 1418166015 0.3777
0043 1418169921 0.3336
0044 1418173828 0.2910
0045 1418177734 0.2489
0046 1418181640 0.2076
0047 1418185546 0.1688
0048 1418189453 0.1320
0049 1418193359 0.0992
0050 1418197265 0.0715
0051 1418201171 0.0500
0052 1418205078 0.0368
0053 1418208984 0.0328
0054 1418212890 0.0401
0055 1418216796 0.0612
0056 1418220703 0.0975
0057 1418224609 0.1525
0058 1418228515 0.2274
0059 1418232421 0.3260
0060 1418236328 0.4526
0061 1418240234 0.6098
0062 1418244140 0.8005
0063 1418248046 1.0325
0064 1418251953 1.2973
0065 1418255859 1.6094
0066 1418259765 1.9766
0067 1418263671 2.4079
0068 1418267578 2.8914
0069 1418271484 3.4544
0070 1418275390 4.0718
0071 1418279296 4.7721
0072 1418283203 5.5685
0073 1418287109 6.4573
0074 1418291015 7.4343
0075 1418294921 8.5552
0076 1418298828 9.7584
0077 1418302734 11.0850
0078 1418306640 12.5665
0079 1418310546 14.1579
0080 1418314453 15.8545
0081 1418318359 17.7471
0082 1418322265 19.8263
0083 1418326171 22.1012
0084 1418330078 24.5560
0085 1418333984 27.2054
0086 1418337890 29.8622
0087 1418341796 33.0605
0088 1418345703 36.2869
0089 1418349609 39.7691
0090 1418353515 43.4342
0091 1418357421 47.4200
0092 1418361328 51.5914
0093 1418365234 56.2193
0094 1418369140 61.0128
0095 1418373046 65.7506
0096 1418376953 71.3309
0097 1418380859 77.1761
0098 1418384765 82.8278
0099 1418388671 88.7358
0100 1418392578 95.6343
0101 1418396484 102.1346
0102 1418400390 109.3972
0103 1418404296 117.5682
0104 1418408203 124.9924
0105 1418412109 133.0779
0106 1418416015 141.8896
0107 1418419921 151.0763
0108 1418423828 160.0784
0109 1418427734 169.6842
0110 1418431640 179.9005
0111 1418435546 189.9512
0112 1418439453 200.7179
0113 1418443359 211.3798
0114 1418447265 222.4034
0115 1418451171 234.3741
0116 1418455078 246.8620
0117 1418458984 258.4208
0118 1418462890 270.8178
0119 1418466796 283.4326
0120 1418470703 297.3605
0121 1418474609 310.7494
0122 1418478515 323.4509
0123 1418482421 338.8735
0124 1418486328 352.2733
0125 1418490234 367.5437
0126 1418494140 382.6964
0127 1418498046 397.2426
0128 1418501953 411.0582
0129 1418505859 429.2797
0130 1418509765 443.1596
0131 1418513671 459.1931
0132 1418517578 477.2427
0133 1418521484 492.7377
0134 1418525390 508.1785
0135 1418529296 522.0758
0136 1418533203 540.0813
0137 1418537109 556.9383
0138 1418541015 571.8398
0139 1418544921 590.0209
0140 1418548828 607.7092
0141 1418552734 620.4601
0142 1418556640 636.4875
0143 1418560546 654.4792
0144 1418564453 673.7874
0145 1418568359 689.9102
0146 1418572265 705.4404
0147 1418576171 720.7743
0148 1418580078 738.2519
0149 1418583984 751.0899
0150 1418587890 767.5218
0151 1418591796 781.1716
0152 1418595703 795.2912
0153 1418599609 808.8638
0154 1418603515 824.1967
0155 1418607421 840.9670
0156 1418611328 854.1602
0157 1418615234 866.3201
0158 1418619140 883.5908
0159 1418623046 895.2444
0160 1418626953 908.8693
0161 1418630859 922.3261
0162 1418634765 936.1771
0163 1418638671 940.3452
0164 1418642578 953.1921
0165 1418646484 965.7147
0166 1418650390 978.3062
0167 1418654296 988.9814
0168 1418658203 996.3234
0169 1418662109 1005.3963
0170 1418666015 1014.0120
0171 1418669921 1020.7318
0172 1418673828 1037.0134
0173 1418677734 1041.2416
0174 1418681640 1046.2931
0175 1418685546 1051.8654
0176 1418689453 1059.1398
0177 1418693359 1063.9767
0178 1418697265 1070.6053
0179 1418701171 1084.0687
0180 1418705078 1083.9004
0181 1418708984 1085.3560
0182 1418712890 1091.1307
0183 1418716796 1097.7137
0184 1418720703 1100.9103
0185 1418724609 1106.5817
0186 1418728515 1105.0507
0187 1418732421 1107.5580
0188 1418736328 1112.5432
0189 1418740234 1109.1667
0190 1418744140 1109.8031
0191 1418748046 1117.6588
0192 1418751953 1114.4534
0193 1418755859 1119.4148
0194 1418759765 1116.7240
0195 1418763671 1118.5105
0196 1418767578 1118.8634
0197 1418771484 1113.0890
0198 1418775390 1116.3182
0199 1418779296 1117.0740
0200 1418783203 1114.3424
0201 1418787109 1117.4591
0202 1418791015 1115.6497
0203 1418794921 1112.4955
0204 1418798828 1109.6421
0205 1418802734 1108.5328
0206 1418806640 1108.0951
0207 1418810546 1102.2820
0208 1418814453 1099.2025
0209 1418818359 1094.4834
0210 1418822265 1098.9211
0211 1418826171 1097.3158
0212 1418830078 1090.0984
0213 1418833984 1086.4420
0214 1418837890 1086.2128
0215 1418841796 1081.4583
0216 1418845703 1078.4419
0217 1418849609 1076.2081
0218 1418853515 1070.2383
0219 1418857421 1064.8707
0220 1418861328 1066.1174
0221 1418865234 1064.1758
0222 1418869140 1060.9552
0223 1418873046 1055.3298
0224 1418876953 1048.9617
0225 1418880859 1046.8434
0226 1418884765 1045.6433
0227 1418888671 1039.4696
0228 1418892578 1039.2953
0229 1418896484 1039.5054
0230 1418900390 1033.0610
0231 1418904296 1035.1257
0232 1418908203 1026.7112
0233 1418912109 1025.4524
0234 1418916015 1025.2950
0235 1418919921 1015.8784
0236 1418923828 1015.1078
0237 1418927734 1010.6580
0238 1418931640 1011.5634
0239 1418935546 1011.8500
0240 1418939453 1009.5541
0241 1418943359 1006.7852
0242 1418947265 1004.3186
0243 1418951171 1001.1445
0244 1418955078 1000.3925
0245 1418958984 999.2153
0246 1418962890 991.7357
0247 1418966796 996.0291
0248 1418970703 994.0352
0249 1418974609 990.7734
0250 1418978515 994.8716
0251 1418982421 991.7433
0252 1418986328 989.0181
0253 1418990234 991.4975
0254 1418994140 987.9338
0255 1418998046 987.7542
0256 1419001953 986.3586
0257 1419005859 986.9086
0258 1419009765 983.6144
0259 1419013671 983.5591
0260 1419017578 983.8029
0261 1419021484 983.5660
0262 1419025390 982.2941
0263 1419029296 983.3744
0264 1419033203 980.5391
0265 1419037109 980.8642
0266 1419041015 981.1183
0267 1419044921 983.3687
0268 1419048828 982.9310
0269 1419052734 983.1062
0270 1419056640 985.0648
0271 1419060546 986.5285
0272 1419064453 985.9654
0273 1419068359 987.7496
0274 1419072265 986.7595
0275 1419076171 991.1105
0276 1419080078 992.3882
0277 1419083984 988.8647
0278 1419087890 989.6469
0279 1419091796 994.1879
0280 1419095703 994.5735
0281 1419099609 996.1728
0282 1419103515 996.6769
0283 1419107421 999.3571
0284 1419111328 995.4061
0285 1419115234 996.1935
0286 1419119140 997.7244
0287 1419123046 1002.4667
0288 1419126953 1000.3507
0289 1419130859 1007.6905
0290 1419134765 1005.3585
0291 1419138671 1006.7078
0292 1419142578 1007.5466
0293 1419146484 1003.1973
0294 1419150390 1006.9417
0295 1419154296 1008.9843
0296 1419158203 1016.8124
0297 1419162109 1016.3051
0298 1419166015 1017.3238
0299 1419169921 1014.7809
0300 1419173828 1014.3668
0301 1419177734 1020.1723
0302 1419181640 1019.4384
0303 1419185546 1020.0102
0304 1419189453 1020.7559
0305 1419193359 1025.7310
0306 1419197265 1026.1132
0307 1419201171 1027.1587
0308 1419205078 1035.8585
0309 1419208984 1032.9432
0310 1419212890 1034.5393
0311 1419216796 1032.3373
0312 1419220703 1034.4875
0313 1419224609 1032.7690
0314 1419228515 1038.9304
0315 1419232421 1038.7845
0316 1419236328 1040.8341
0317 1419240234 1038.1450
0318 1419244140 1044.1377
0319 1419248046 1046.5955
0320 1419251953 1043.2711
0321 1419255859 1042.5526
0322 1419259765 1043.5829
0323 1419263671 1041.0625
0324 1419267578 1048.0344
0325 1419271484 1048.8715
0326 1419275390 1045.9783
0327 1419279296 1043.7118
0328 1419283203 1052.9988
0329 1419287109 1053.4901
0330 1419291015 1049.1252
0331 1419294921 1053.3928
0332 1419298828 1052.6223
0333 1419302734 1053.6232
0334 1419306640 1045.7084
0335 1419310546 1055.7804
0336 1419314453 1051.5211
0337 1419318359 1053.8186
0338 1419322265 1054.8793
0339 1419326171 1052.4552
0340 1419330078 1054.6041
0341 1419333984 1054.3162
0342 1419337890 1056.7251
0343 1419341796 1052.3130
0344 1419345703 1058.4233
0345 1419349609 1060.0624
0346 1419353515 1056.7537
0347 1419357421 1056.6141
0348 1419361328 1055.4049
0349 1419365234 1056.8910
0350 1419369140 1059.8885
0351 1419373046 1055.8022
0352 1419376953 1057.7118
0353 1419380859 1057.0720
0354 1419384765 1062.3229
0355 1419388671 1057.9462
0356 1419392578 1054.6110
0357 1419396484 1061.0426
0358 1419400390 1057.2928
0359 1419404296 1059.6180
0360 1419408203 1055.7345
0361 1419412109 1059.9257
0362 1419416015 1058.8895
0363 1419419921 1060.5779
0364 1419423828 1054.7810
0365 1419427734 1054.4016
0366 1419431640 1056.8691
0367 1419435546 1059.7590
0368 1419439453 1054.2406
0369 1419443359 1059.5308
0370 1419447265 1057.0472
0371 1419451171 1060.0149
0372 1419455078 1065.5127
0373 1419458984 1061.4178
0374 1419462890 1060.7117
0375 1419466796 1061.6882
0376 1419470703 1058.3438
0377 1419474609 1063.9136
0378 1419478515 1062.3136
0379 1419482421 1061.0358
0380 1419486328 1063.7000
0381 1419490234 1064.6580
0382 1419494140 1065.7338
0383 1419498046 1062.1497
0384 1419501953 1063.2598
0385 1419505859 1063.5776
0386 1419509765 1063.9641
0387 1419513671 1060.8785
0388 1419517578 1064.9283
0389 1419521484 1066.4673
0390 1419525390 1067.1306
0391 1419529296 1068.2876
0392 1419533203 1059.5386
0393 1419537109 1065.0376
0394 1419541015 1066.3787
0395 1419544921 1069.0261
0396 1419548828 1069.5536
0397 1419552734 1068.1971
0398 1419556640 1066.6876
0399 1419560546 1068.3887
0400 1419564453 1065.4515
0401 1419568359 1063.5089
0402 1419572265 1066.1527
0403 1419576171 1066.0808
0404 1419580078 1065.0422
0405 1419583984 1064.9031
0406 1419587890 1064.1183
0407 1419591796 1064.3258
0408 1419595703 1060.9095
0409 1419599609 1066.1162
0410 1419603515 1061.6383
0411 1419607421 1066.1543
0412 1419611328 1067.1198
0413 1419615234 1064.4912
0414 1419619140 1063.4142
0415 1419623046 1062.0460
0416 1419626953 1060.6501
0417 1419630859 1065.3826
0418 1419634765 1063.9698
0419 1419638671 1060.8978
0420 1419642578 1061.0443
0421 1419646484 1061.0770
0422 1419650390 1056.8041
0423 1419654296 1062.3945
0424 1419658203 1057.2941
0425 1419662109 1062.4349
0426 1419666015 1060.4417
0427 1419669921 1062.3290
0428 1419673828 1054.1182
0429 1419677734 1058.9823
0430 1419681640 1056.2565
0431 1419685546 1055.0016
0432 1419689453 1053.7910
0433 1419693359 1056.0151
0434 1419697265 1053.8729
0435 1419701171 1059.2274
0436 1419705078 1054.5088
0437 1419708984 1054.3263
0438 1419712890 1048.8145
0439 1419716796 1050.1847
0440 1419720703 1046.3484
0441 1419724609 1048.3118
0442 1419728515 1046.7861
0443 1419732421 1050.7506
0444 1419736328 1044.0903
0445 1419740234 1044.8131
0446 1419744140 1039.5289
0447 1419748046 1041.9977
0448 1419751953 1043.3165
0449 1419755859 1038.3063
0450 1419759765 1040.2203
0451 1419763671 1039.0258
0452 1419767578 1034.7931
0453 1419771484 1032.8462
0454 1419775390 1041.0726
0455 1419779296 1036.4120
0456 1419783203 1036.8065
0457 1419787109 1035.8972
0458 1419791015 1033.2932
0459 1419794921 1033.6041
0460 1419798828 1029.0046
0461 1419802734 1031.4615
0462 1419806640 1030.4906
0463 1419810546 1022.5186
0464 1419814453 1025.7458
0465 1419818359 1025.8755
0466 1419822265 1021.8051
0467 1419826171 1020.8214
0468 1419830078 1024.0006
0469 1419833984 1022.6214
0470 1419837890 1025.3950
0471 1419841796 1025.0148
0472 1419845703 1024.3422
0473 1419849609 1022.0027
0474 1419853515 1020.8608
0475 1419857421 1023.0605
0476 1419861328 1019.9975
0477 1419865234 1015.5068
0478 1419869140 1013.9877
0479 1419873046 1015.9870
0480 1419876953 1018.8879
0481 1419880859 1017.7419
0482 1419884765 1013.6639
0483 1419888671 1009.0974
0484 1419892578 1013.1042
0485 1419896484 1010.5935
0486 1419900390 1008.7858
0487 1419904296 1012.4691
0488 1419908203 1008.1505
0489 1419912109 1006.1368
0490 1419916015 1008.6769
0491 1419919921 1006.6057
0492 1419923828 1003.1236
0493 1419927734 1005.1635
0494 1419931640 1004.1482
0495 1419935546 1008.3448
0496 1419939453 1002.2469
0497 1419943359 1005.0675
0498 1419947265 1005.8287
0499 1419951171 1007.0399
0500 1419955078 1003.9635
0501 1419958984 1004.2927
0502 1419962890 1001.4124
0503 1419966796 1006.1736
0504 1419970703 1003.8109
0505 1419974609 1002.6453
0506 1419978515 1003.1409
0507 1419982421 999.6081
0508 1419986328 1006.0864
0509 1419990234 1006.4456
0510 1419994140 1001.5164
0511 1419998046 1004.8882
0512 1420001953 1003.6242
0513 1420005859 1005.9106
0514 1420009765 1005.0660
0515 1420013671 1004.1686
0516 1420017578 1007.7692
0517 1420021484 1001.8537
0518 1420025390 1006.5898
0519 1420029296 1005.2722
0520 1420033203 1007.6896
0521 1420037109 1005.9812
0522 1420041015 1007.0400
0523 1420044921 1007.3268
0524 1420048828 1004.9380
0525 1420052734 1006.1926
0526 1420056640 1006.0126
0527 1420060546 1006.3229
0528 1420064453 1001.2872
0529 1420068359 1004.2793
0530 1420072265 1006.9013
0531 1420076171 1007.7974
0532 1420080078 1007.0817
0533 1420083984 1005.7762
0534 1420087890 1006.1489
0535 1420091796 1004.1681
0536 1420095703 1007.9723
0537 1420099609 1009.3170
0538 1420103515 1009.2683
0539 1420107421 1006.8228
0540 1420111328 1003.4758
0541 1420115234 1009.9092
0542 1420119140 1007.7741
0543 1420123046 1008.6747
0544 1420126953 1009.1816
0545 1420130859 1007.2289
0546 1420134765 1002.3374
0547 1420138671 1010.9662
0548 1420142578 1005.6679
0549 1420146484 1006.7380
0550 1420150390 1005.1977
0551 1420154296 1006.3022
0552 1420158203 1003.6316
0553 1420162109 1006.9557
0554 1420166015 1007.0524
0555 1420169921 1006.9698
0556 1420173828 1004.8170
0557 1420177734 1003.2593
0558 1420181640 1005.6459
0559 1420185546 1006.5721
0560 1420189453 1004.7443
0561 1420193359 1005.9180
0562 1420197265 1000.1612
0563 1420201171 1003.8109
0564 1420205078 1005.7361
0565 1420208984 1006.7895
0566 1420212890 1001.8098
0567 1420216796 1003.5098
0568 1420220703 1001.2271
0569 1420224609 1006.0469
0570 1420228515 1003.7717
0571 1420232421 1002.1651
0572 1420236328 1000.9963
0573 1420240234 999.5266
0574 1420244140 998.9348
0575 1420248046 997.4953
0576 1420251953 998.4782
0577 1420255859 1000.6319
0578 1420259765 997.3273
0579 1420263671 998.0657
0580 1420267578 1000.4220
0581 1420271484 997.9097
0582 1420275390 996.4149
0583 1420279296 993.0712
0584 1420283203 996.9071
0585 1420287109 992.8947
0586 1420291015 992.9836
0587 1420294921 992.0636
0588 1420298828 993.0858
0589 1420302734 993.1704
0590 1420306640 993.8872
0591 1420310546 993.6667
0592 1420314453 987.8126
0593 1420318359 992.0919
0594 1420322265 989.8846
0595 1420326171 993.1882
0596 1420330078 991.7982
0597 1420333984 986.5292
0598 1420337890 992.2456
0599 1420341796 988.1848
0600 1420345703 986.0290
0601 1420349609 990.9868
0602 1420353515 987.1590
0603 1420357421 986.6226
0604 1420361328 985.3174
0605 1420365234 980.5013
0606 1420369140 983.3250
0607 1420373046 986.1337
0608 1420376953 985.0449
0609 1420380859 982.7396
0610 1420384765 980.6877
0611 1420388671 979.4648
0612 1420392578 981.6443
0613 1420396484 975.4448
0614 1420400390 978.3829
0615 1420404296 979.7823
0616 1420408203 979.0436
0617 1420412109 975.1125
0618 1420416015 975.1082
0619 1420419921 977.6609
0620 1420423828 975.1013
0621 1420427734 975.8455
0622 1420431640 975.2519
0623 1420435546 973.5117
0624 1420439453 975.6104
0625 1420443359 973.1212
0626 1420447265 972.1766
0627 1420451171 969.9899
0628 1420455078 973.7191
0629 1420458984 972.8826
0630 1420462890 970.2189
0631 1420466796 969.6669
0632 1420470703 969.8719
0633 1420474609 967.4578
0634 1420478515 970.1284
0635 1420482421 972.0351
0636 1420486328 972.3349
0637 1420490234 972.2863
0638 1420494140 974.8421
0639 1420498046 969.8867
0640 1420501953 972.0674
0641 1420505859 970.8160
0642 1420509765 970.0666
0643 1420513671 970.7482
0644 1420517578 970.7004
0645 1420521484 974.5752
0646 1420525390 972.0690
0647 1420529296 970.0093
0648 1420533203 972.0651
0649 1420537109 975.1352
0650 1420541015 970.6404
0651 1420544921 969.7731
0652 1420548828 968.4547
0653 1420552734 970.8047
0654 1420556640 969.5597
0655 1420560546 973.1793
0656 1420564453 977.5798
0657 1420568359 975.1774
0658 1420572265 975.8246
0659 1420576171 974.8368
0660 1420580078 971.2708
0661 1420583984 973.5315
0662 1420587890 969.7690
0663 1420591796 968.0985
0664 1420595703 970.4156
0665 1420599609 974.3271
0666 1420603515 975.0093
0667 1420607421 973.6555
0668 1420611328 976.0443
0669 1420615234 975.1352
0670 1420619140 974.2308
0671 1420623046 973.0571
0672 1420626953 971.0198
0673 1420630859 970.5042
0674 1420634765 969.7115
0675 1420638671 970.8754
0676 1420642578 973.1201
0677 1420646484 971.9786
0678 1420650390 971.7371
0679 1420654296 972.2438
0680 1420658203 971.3725
0681 1420662109 969.8613
0682 1420666015 967.1476
0683 1420669921 971.9099
0684 1420673828 970.0577
0685 1420677734 971.7677
0686 1420681640 968.9137
0687 1420685546 969.5973
0688 1420689453 970.9644
0689 1420693359 973.0202
0690 1420697265 968.2802
0691 1420701171 971.1842
0692 1420705078 967.8244
0693 1420708984 967.5389
0694 1420712890 963.7736
0695 1420716796 964.5947
0696 1420720703 965.9081
0697 1420724609 965.0400
0698 1420728515 963.1031
0699 1420732421 964.9616
0700 1420736328 966.7944
0701 1420740234 963.0549
0702 1420744140 961.1354
0703 1420748046 960.1526
0704 1420751953 961.5170
0705 1420755859 959.9888
0706 1420759765 959.5551
0707 1420763671 960.1780
0708 1420767578 960.9656
0709 1420771484 962.9979
0710 1420775390 958.1729
0711 1420779296 956.4575
0712 1420783203 958.8557
0713 1420787109 961.1707
0714 1420791015 956.2146
0715 1420794921 957.2260
0716 1420798828 956.7542
0717 1420802734 952.8285
0718 1420806640 954.1896
0719 1420810546 954.5267
0720 1420814453 957.7838
0721 1420818359 957.9737
0722 1420822265 956.2790
0723 1420826171 953.0740
0724 1420830078 949.8458
0725 1420833984 953.7482
0726 1420837890 950.3654
0727 1420841796 952.6246
0728 1420845703 954.5512
0729 1420849609 949.2914
0730 1420853515 949.9985
0731 1420857421 953.5009
0732 1420861328 950.9633
0733 1420865234 955.9283
0734 1420869140 950.6927
0735 1420873046 949.8904
0736 1420876953 950.6013
0737 1420880859 951.9246
0738 1420884765 949.9549
0739 1420888671 952.3831
0740 1420892578 952.9431
0741 1420896484 953.2377
0742 1420900390 951.6413
0743 1420904296 950.7187
0744 1420908203 952.5878
0745 1420912109 953.5170
0746 1420916015 953.9113
0747 1420919921 956.4028
0748 1420923828 954.8137
0749 1420927734 957.3196
0750 1420931640 954.0649
0751 1420935546 959.2275
0752 1420939453 954.7443
0753 1420943359 955.2526
0754 1420947265 962.1620
0755 1420951171 955.5861
0756 1420955078 959.5444
0757 1420958984 959.6870
0758 1420962890 960.5376
0759 1420966796 959.2387
0760 1420970703 962.6417
0761 1420974609 964.1578
0762 1420978515 960.5278
0763 1420982421 959.9957
0764 1420986328 963.4514
0765 1420990234 965.1079
0766 1420994140 965.3687
0767 1420998046 966.5786
0768 1421001953 972.5916
0769 1421005859 967.9829
0770 1421009765 968.6106
0771 1421013671 974.5399
0772 1421017578 975.9749
0773 1421021484 972.3029
0774 1421025390 973.3585
0775 1421029296 975.0322
0776 1421033203 975.2315
0777 1421037109 977.1501
0778 1421041015 977.0911
0779 1421044921 980.1279
0780 1421048828 983.5156
0781 1421052734 981.4346
0782 1421056640 980.2213
0783 1421060546 983.6810
0784 1421064453 983.3605
0785 1421068359 981.1429
0786 1421072265 986.1187
0787 1421076171 983.8282
0788 1421080078 984.8979
0789 1421083984 988.0425
0790 1421087890 988.5772
0791 1421091796 993.3793
0792 1421095703 990.8854
0793 1421099609 992.5763
0794 1421103515 991.3265
0795 1421107421 995.2535
0796 1421111328 993.6986
0797 1421115234 993.2363
0798 1421119140 995.6520
0799 1421123046 999.3760
0800 1421126953 998.0250
0801 1421130859 996.4696
0802 1421134765 999.2968
0803 1421138671 997.7901
0804 1421142578 996.4921
0805 1421146484 1001.3240
0806 1421150390 995.3058
0807 1421154296 1001.1863
0808 1421158203 1002.6676
0809 1421162109 999.0721
0810 1421166015 1003.6722
0811 1421169921 1002.0790
0812 1421173828 1001.9075
0813 1421177734 1000.6501
0814 1421181640 1002.7117
0815 1421185546 1001.6908
0816 1421189453 1003.3659
0817 1421193359 1000.7397
0818 1421197265 998.7348
0819 1421201171 1001.9562
0820 1421205078 1002.0605
0821 1421208984 1000.3721
0822 1421212890 1000.3940
0823 1421216796 1001.0267
0824 1421220703 1001.7527
0825 1421224609 999.5182
0826 1421228515 997.9429
0827 1421232421 1004.7289
0828 1421236328 999.0912
0829 1421240234 999.4720
0830 1421244140 996.8394
0831 1421248046 994.5259
0832 1421251953 991.5275
0833 1421255859 992.3162
0834 1421259765 990.3318
0835 1421263671 989.8672
0836 1421267578 991.1360
0837 1421271484 989.2872
0838 1421275390 990.8475
0839 1421279296 992.8832
0840 1421283203 989.5967
0841 1421287109 990.5747
0842 1421291015 984.9890
0843 1421294921 987.5289
0844 1421298828 986.3492
0845 1421302734 986.4365
0846 1421306640 985.8588
0847 1421310546 984.5740
0848 1421314453 982.0052
0849 1421318359 983.8211
0850 1421322265 981.7486
0851 1421326171 983.2360
0852 1421330078 982.8738
0853 1421333984 978.8813
0854 1421337890 976.9103
0855 1421341796 975.3655
0856 1421345703 973.9054
0857 1421349609 977.2490
0858 1421353515 975.4535
0859 1421357421 975.9926
0860 1421361328 971.6508
0861 1421365234 971.7246
0862 1421369140 972.2120
0863 1421373046 969.0190
0864 1421376953 969.2764
0865 1421380859 968.4830
0866 1421384765 966.4517
0867 1421388671 969.1542
0868 1421392578 966.5939
0869 1421396484 966.8677
0870 1421400390 966.1326
0871 1421404296 964.7111
0872 1421408203 962.3945
0873 1421412109 962.4588
0874 1421416015 963.8772
0875 1421419921 964.2014
0876 1421423828 960.4056
0877 1421427734 961.1711
0878 1421431640 965.8291
0879 1421435546 964.4893
0880 1421439453 965.7548
0881 1421443359 963.5350
0882 1421447265 959.6432
0883 1421451171 963.8729
0884 1421455078 962.8347
0885 1421458984 961.8898
0886 1421462890 961.1722
0887 1421466796 959.9684
0888 1421470703 961.8469
0889 1421474609 963.4481
0890 1421478515 965.2288
0891 1421482421 968.5300
0892 1421486328 965.8174
0893 1421490234 969.5513
0894 1421494140 967.3882
0895 1421498046 968.7488
0896 1421501953 968.2827
0897 1421505859 968.8117
0898 1421509765 972.0233
0899 1421513671 975.2880
0900 1421517578 972.3355
0901 1421521484 973.2341
0902 1421525390 976.3829
0903 1421529296 972.1865
0904 1421533203 977.1801
0905 1421537109 979.5073
0906 1421541015 976.8625
0907 1421544921 978.0149
0908 1421548828 980.3620
0909 1421552734 983.0034
0910 1421556640 982.1976
0911 1421560546 985.8826
0912 1421564453 986.7574
0913 1421568359 989.3012
0914 1421572265 988.9341
0915 1421576171 989.5779
0916 1421580078 991.4796
0917 1421583984 989.5038
0918 1421587890 990.6538
0919 1421591796 993.7002
0920 1421595703 993.9399
0921 1421599609 996.9438
0922 1421603515 994.1245
0923 1421607421 1000.6838
0924 1421611328 1003.1781
0925 1421615234 1003.2434
0926 1421619140 997.6955
0927 1421623046 1004.6021
0928 1421626953 1006.9918
0929 1421630859 1008.7151
0930 1421634765 1011.1829
0931 1421638671 1010.9033
0932 1421642578 1009.8516
0933 1421646484 1009.3442
0934 1421650390 1009.6068
0935 1421654296 1011.4477
0936 1421658203 1013.9982
0937 1421662109 1013.5801
0938 1421666015 1012.7010
0939 1421669921 1019.2528
0940 1421673828 1018.0743
0941 1421677734 1016.9331
0942 1421681640 1019.0587
0943 1421685546 1017.9111
0944 1421689453 1021.5223
0945 1421693359 1020.9539
0946 1421697265 1021.0389
0947 1421701171 1020.1921
0948 1421705078 1020.0448
0949 1421708984 1017.1530
0950 1421712890 1018.8024
0951 1421716796 1022.6204
0952 1421720703 1019.3799
0953 1421724609 1018.5878
0954 1421728515 1019.4394
0955 1421732421 1019.4891
0956 1421736328 1025.1857
0957 1421740234 1021.8308
0958 1421744140 1020.8801
0959 1421748046 1018.5821
0960 1421751953 1019.2421
0961 1421755859 1021.2668
0962 1421759765 1020.1067
0963 1421763671 1018.8032
0964 1421767578 1021.1844
0965 1421771484 1020.3658
0966 1421775390 1018.4525
0967 1421779296 1018.6229
0968 1421783203 1015.5532
0969 1421787109 1015.4748
0970 1421791015 1019.2913
0971 1421794921 1015.1169
0972 1421798828 1013.3987
0973 1421802734 1009.5293
0974 1421806640 1009.3546
0975 1421810546 1009.6149
0976 1421814453 1009.5789
0977 1421818359 1000.9444
0978 1421822265 1007.9556
0979 1421826171 1001.7474
0980 1421830078 1009.1871
0981 1421833984 1002.6952
0982 1421837890 1001.0121
0983 1421841796 998.8861
0984 1421845703 1002.3497
0985 1421849609 999.6484
0986 1421853515 995.3403
0987 1421857421 995.7803
0988 1421861328 991.5209
0989 1421865234 995.2188
0990 1421869140 993.2018
0991 1421873046 990.9531
0992 1421876953 993.5737
0993 1421880859 990.3218
0994 1421884765 987.4152
0995 1421888671 986.0499
0996 1421892578 987.9356
0997 1421896484 987.2837
0998 1421900390 982.4633
0999 1421904296 982.6879
1000 1421908203 978.7446
1001 1421912109 981.0373
1002 1421916015 978.1586
1003 1421919921 973.7988
1004 1421923828 972.5521
1005 1421927734 972.6564
1006 1421931640 972.3591
1007 1421935546 971.2944
1008 1421939453 972.4011
1009 1421943359 972.4559
1010 1421947265 968.6907
1011 1421951171 972.7345
1012 1421955078 968.9202
1013 1421958984 966.5596
1014 1421962890 970.2606
1015 1421966796 968.7691
1016 1421970703 969.5505
1017 1421974609 967.3309
1018 1421978515 968.5826
1019 1421982421 967.3589
1020 1421986328 967.0790
1021 1421990234 970.5870
1022 1421994140 974.0284
1023 1421998046 1003.2723
1024 1422001953 1082.8105
1025 1422005859 1007.2888
1026 1422009765 974.8278
1027 1422013671 973.1583
1028 1422017578 972.8669
1029 1422021484 971.9670
1030 1422025390 968.2230
1031 1422029296 968.1687
1032 1422033203 969.6837
1033 1422037109 965.7483
1034 1422041015 969.5362
1035 1422044921 970.5690
1036 1422048828 966.1946
1037 1422052734 970.1000
1038 1422056640 972.5815
1039 1422060546 971.8760
1040 1422064453 967.7819
1041 1422068359 970.8052
1042 1422072265 969.5609
1043 1422076171 972.6609
1044 1422080078 973.9697
1045 1422083984 972.5790
1046 1422087890 973.7501
1047 1422091796 975.6027
1048 1422095703 977.2489
1049 1422099609 975.6790
1050 1422103515 975.8649
1051 1422107421 980.2912
1052 1422111328 979.5396
1053 1422115234 979.6222
1054 1422119140 981.1103
1055 1422123046 983.4191
1056 1422126953 987.1290
1057 1422130859 985.9325
1058 1422134765 988.8135
1059 1422138671 987.0579
1060 1422142578 988.3245
1061 1422146484 985.7909
1062 1422150390 989.5747
1063 1422154296 994.7225
1064 1422158203 990.1351
1065 1422162109 993.9976
1066 1422166015 994.9993
1067 1422169921 995.2663
1068 1422173828 998.7276
1069 1422177734 994.1112
1070 1422181640 1000.2211
1071 1422185546 995.5668
1072 1422189453 1001.4904
1073 1422193359 1007.8419
1074 1422197265 1003.0696
1075 1422201171 1000.6014
1076 1422205078 1007.9539
1077 1422208984 1006.5223
1078 1422212890 1008.1978
1079 1422216796 1008.4067
1080 1422220703 1005.8482
1081 1422224609 1007.4118
1082 1422228515 1006.0458
1083 1422232421 1008.3090
1084 1422236328 1011.1688
1085 1422240234 1008.2932
1086 1422244140 1010.4463
1087 1422248046 1008.8734
1088 1422251953 1007.5520
1089 1422255859 1010.0628
1090 1422259765 1014.9399
1091 1422263671 1010.9107
1092 1422267578 1009.0903
1093 1422271484 1013.9095
1094 1422275390 1012.6158
1095 1422279296 1011.0251
1096 1422283203 1007.3825
1097 1422287109 1011.6434
1098 1422291015 1010.9646
1099 1422294921 1011.4608
1100 1422298828 1006.4135
1101 1422302734 1008.8682
1102 1422306640 1012.9860
1103 1422310546 1006.7560
1104 1422314453 1005.7039
1105 1422318359 1004.3207
1106 1422322265 1005.6650
1107 1422326171 1000.7653
1108 1422330078 1004.2125
1109 1422333984 1005.7497
1110 1422337890 1002.8192
1111 1422341796 1002.6097
1112 1422345703 1001.8794
1113 1422349609 999.9770
1114 1422353515 994.8027
1115 1422357421 995.1232
1116 1422361328 998.6735
1117 1422365234 997.8597
1118 1422369140 993.3464
1119 1422373046 995.8225
1120 1422376953 993.4813
1121 1422380859 992.6713
1122 1422384765 987.0916
1123 1422388671 989.8325
1124 1422392578 990.0841
1125 1422396484 988.3562
1126 1422400390 986.9388
1127 1422404296 983.4922
1128 1422408203 983.5389
1129 1422412109 982.1964
1130 1422416015 978.6978
1131 1422419921 978.5933
1132 1422423828 976.8173
1133 1422427734 979.2465
1134 1422431640 969.5742
1135 1422435546 973.8422
1136 1422439453 972.1236
1137 1422443359 971.1041
1138 1422447265 972.1289
1139 1422451171 971.9339
1140 1422455078 967.7766
1141 1422458984 964.7783
1142 1422462890 965.9711
1143 1422466796 964.4902
1144 1422470703 962.6401
1145 1422474609 959.6984
1146 1422478515 960.4525
1147 1422482421 960.8848
1148 1422486328 959.4006
1149 1422490234 956.5464
1150 1422494140 954.7793
1151 1422498046 954.0636
1152 1422501953 956.3643
1153 1422505859 960.1169
1154 1422509765 954.8297
1155 1422513671 956.6694
1156 1422517578 953.5993
1157 1422521484 950.0417
1158 1422525390 952.2807
1159 1422529296 954.9723
1160 1422533203 950.8966
1161 1422537109 951.1714
1162 1422541015 950.1356
1163 1422544921 946.4689
1164 1422548828 950.8763
1165 1422552734 952.6327
1166 1422556640 947.4747
1167 1422560546 946.2482
1168 1422564453 949.4097
1169 1422568359 947.2767
1170 1422572265 951.8441
1171 1422576171 947.8352
1172 1422580078 948.9329
1173 1422583984 949.8500
1174 1422587890 950.1438
1175 1422591796 953.1204
1176 1422595703 950.8446
1177 1422599609 952.2056
1178 1422603515 953.4940
1179 1422607421 952.1650
1180 1422611328 952.0028
1181 1422615234 952.2293
1182 1422619140 958.6354
1183 1422623046 955.1379
1184 1422626953 955.9893
1185 1422630859 953.3515
1186 1422634765 953.8320
1187 1422638671 957.2863
1188 1422642578 956.0487
1189 1422646484 958.6316
1190 1422650390 958.6113
1191 1422654296 961.8442
1192 1422658203 958.4044
1193 1422662109 961.7815
1194 1422666015 962.4637
1195 1422669921 966.1357
1196 1422673828 961.1867
1197 1422677734 963.0095
1198 1422681640 963.5844
1199 1422685546 966.4318
1200 1422689453 965.8385
1201 1422693359 969.8859
1202 1422697265 969.7699
1203 1422701171 972.2477
1204 1422705078 974.1947
1205 1422708984 974.2228
1206 1422712890 974.9136
1207 1422716796 972.7047
1208 1422720703 974.8359
1209 1422724609 975.5552
1210 1422728515 974.3398
1211 1422732421 976.2447
1212 1422736328 977.2059
1213 1422740234 980.5232
1214 1422744140 979.5540
1215 1422748046 980.4805
1216 1422751953 980.3413
1217 1422755859 980.9529
1218 1422759765 980.6427
1219 1422763671 980.0836
1220 1422767578 984.6896
1221 1422771484 985.4853
1222 1422775390 983.2062
1223 1422779296 983.3381
1224 1422783203 985.3637
1225 1422787109 982.4858
1226 1422791015 982.6826
1227 1422794921 986.0475
1228 1422798828 982.8857
1229 1422802734 983.4576
1230 1422806640 982.4616
1231 1422810546 986.4772
1232 1422814453 988.8719
1233 1422818359 986.7252
1234 1422822265 980.6942
1235 1422826171 987.1827
1236 1422830078 983.0624
1237 1422833984 982.5439
1238 1422837890 983.5589
1239 1422841796 985.6887
1240 1422845703 984.0356
1241 1422849609 983.2892
1242 1422853515 983.4232
1243 1422857421 981.0577
1244 1422861328 982.5181
1245 1422865234 985.4631
1246 1422869140 981.1136
1247 1422873046 983.0147
1248 1422876953 978.9000
1249 1422880859 977.6611
1250 1422884765 975.6805
1251 1422888671 981.7000
1252 1422892578 976.6158
1253 1422896484 973.0919
1254 1422900390 976.5681
1255 1422904296 979.6611
1256 1422908203 972.4144
1257 1422912109 975.6128
1258 1422916015 969.7971
1259 1422919921 972.5176
1260 1422923828 972.7410
1261 1422927734 968.9285
1262 1422931640 964.2728
1263 1422935546 964.8898
1264 1422939453 968.8223
1265 1422943359 966.2075
1266 1422947265 967.9095
1267 1422951171 968.7545
1268 1422955078 964.7242
1269 1422958984 961.8738
1270 1422962890 960.4404
1271 1422966796 958.5302
1272 1422970703 957.3305
1273 1422974609 959.9817
1274 1422978515 954.2586
1275 1422982421 955.6034
1276 1422986328 955.6578
1277 1422990234 954.5240
1278 1422994140 952.4438
1279 1422998046 954.6195
1280 1423001953 953.2521
1281 1423005859 948.8217
1282 1423009765 948.4351
1283 1423013671 952.3055
1284 1423017578 949.8336
1285 1423021484 948.0236
1286 1423025390 947.4137
1287 1423029296 944.0947
1288 1423033203 947.1076
1289 1423037109 942.0485
1290 1423041015 942.4927
1291 1423044921 945.3752
1292 1423048828 939.6945
1293 1423052734 940.1833
1294 1423056640 941.7823
1295 1423060546 941.9107
1296 1423064453 942.0241
1297 1423068359 938.3060
1298 1423072265 939.9788
1299 1423076171 938.7244
1300 1423080078 938.8405
1301 1423083984 936.2605
1302 1423087890 939.8011
1303 1423091796 936.5646
1304 1423095703 937.4327
1305 1423099609 934.1426
1306 1423103515 937.8948
1307 1423107421 937.3592
1308 1423111328 931.9480
1309 1423115234 934.8422
1310 1423119140 934.1292
1311 1423123046 936.3043
1312 1423126953 935.0043
1313 1423130859 935.7226
1314 1423134765 934.2318
1315 1423138671 934.2814
1316 1423142578 933.4249
1317 1423146484 934.5855
1318 1423150390 933.2496
1319 1423154296 935.3707
1320 1423158203 933.3900
1321 1423162109 933.3901
1322 1423166015 936.1009
1323 1423169921 936.7554
1324 1423173828 934.5690
1325 1423177734 939.2303
1326 1423181640 937.8969
1327 1423185546 938.9170
1328 1423189453 935.3477
1329 1423193359 935.5234
1330 1423197265 936.2984
1331 1423201171 942.0394
1332 1423205078 937.5513
1333 1423208984 937.2535
1334 1423212890 936.5410
1335 1423216796 936.0113
1336 1423220703 938.2892
1337 1423224609 939.4171
1338 1423228515 940.7269
1339 1423232421 943.4168
1340 1423236328 942.0542
1341 1423240234 938.6168
1342 1423244140 940.0987
1343 1423248046 941.9705
1344 1423251953 940.5444
1345 1423255859 946.4516
1346 1423259765 946.1063
1347 1423263671 945.6844
1348 1423267578 946.3407
1349 1423271484 944.6146
1350 1423275390 945.2249
1351 1423279296 946.1187
1352 1423283203 948.1171
1353 1423287109 949.5429
1354 1423291015 948.4175
1355 1423294921 949.8934
1356 1423298828 948.2248
1357 1423302734 950.0417
1358 1423306640 948.6940
1359 1423310546 951.2006
1360 1423314453 950.5830
1361 1423318359 951.0472
1362 1423322265 951.1787
1363 1423326171 951.0703
1364 1423330078 948.9885
1365 1423333984 949.5348
1366 1423337890 949.0178
1367 1423341796 953.2289
1368 1423345703 948.7124
1369 1423349609 949.0332
1370 1423353515 948.6095
1371 1423357421 947.2086
1372 1423361328 953.7726
1373 1423365234 950.6063
1374 1423369140 951.8552
1375 1423373046 947.8923
1376 1423376953 949.8062
1377 1423380859 950.7642
1378 1423384765 950.9298
1379 1423388671 948.4032
1380 1423392578 948.6786
1381 1423396484 949.8185
1382 1423400390 949.5505
1383 1423404296 953.6969
1384 1423408203 953.0498
1385 1423412109 950.8238
1386 1423416015 950.3865
1387 1423419921 948.3989
1388 1423423828 947.1186
1389 1423427734 953.6196
1390 1423431640 949.9268
1391 1423435546 949.3966
1392 1423439453 950.0647
1393 1423443359 944.0588
1394 1423447265 947.9196
1395 1423451171 948.7425
1396 1423455078 950.1313
1397 1423458984 948.5923
1398 1423462890 946.7664
1399 1423466796 947.2762
1400 1423470703 947.9033
1401 1423474609 945.9730
1402 1423478515 949.6114
1403 1423482421 950.1015
1404 1423486328 948.3677
1405 1423490234 946.3550
1406 1423494140 947.7054
1407 1423498046 945.8702
1408 1423501953 944.8388
1409 1423505859 950.8298
1410 1423509765 946.7151
1411 1423513671 944.3555
1412 1423517578 946.2202
1413 1423521484 944.1678
1414 1423525390 945.5484
1415 1423529296 946.9717
1416 1423533203 948.2371
1417 1423537109 946.7346
1418 1423541015 944.9584
1419 1423544921 941.7567
1420 1423548828 948.1269
1421 1423552734 945.7274
1422 1423556640 942.7995
1423 1423560546 947.5822
1424 1423564453 947.6560
1425 1423568359 946.7595
1426 1423572265 948.9066
1427 1423576171 945.2137
1428 1423580078 948.2075
1429 1423583984 950.5371
1430 1423587890 948.7441
1431 1423591796 947.9681
1432 1423595703 947.0394
1433 1423599609 946.3436
1434 1423603515 949.3179
1435 1423607421 948.8768
1436 1423611328 948.9428
1437 1423615234 949.7563
1438 1423619140 952.3338
1439 1423623046 947.4219
1440 1423626953 948.2968
1441 1423630859 952.4227
1442 1423634765 951.2234
1443 1423638671 949.4224
1444 1423642578 950.8472
1445 1423646484 953.7330
1446 1423650390 953.4815
1447 1423654296 953.1151
1448 1423658203 954.5060
1449 1423662109 956.0588
1450 1423666015 955.8913
1451 1423669921 953.1761
1452 1423673828 956.3029
1453 1423677734 953.4866
1454 1423681640 955.4270
1455 1423685546 961.0782
1456 1423689453 963.1605
1457 1423693359 959.5957
1458 1423697265 957.7338
1459 1423701171 958.3486
1460 1423705078 961.7061
1461 1423708984 963.0995
1462 1423712890 961.7767
1463 1423716796 958.2700
1464 1423720703 962.6423
1465 1423724609 961.8284
1466 1423728515 964.6022
1467 1423732421 964.1273
1468 1423736328 961.5371
1469 1423740234 964.5515
1470 1423744140 962.2593
1471 1423748046 968.8123
1472 1423751953 963.1244
1473 1423755859 967.2946
1474 1423759765 969.0923
1475 1423763671 972.0015
1476 1423767578 967.1854
1477 1423771484 966.8881
1478 1423775390 972.2860
1479 1423779296 972.0574
1480 1423783203 970.4356
1481 1423787109 970.0272
1482 1423791015 967.6409
1483 1423794921 969.3564
1484 1423798828 968.7587
1485 1423802734 968.2496
1486 1423806640 970.8484
1487 1423810546 969.3600
1488 1423814453 971.4466
1489 1423818359 974.3938
1490 1423822265 973.0151
1491 1423826171 975.8541
1492 1423830078 974.6486
1493 1423833984 977.5647
1494 1423837890 974.0399
1495 1423841796 973.6074
1496 1423845703 974.9838
1497 1423849609 975.3225
1498 1423853515 975.8913
1499 1423857421 975.1815
1500 1423861328 973.1396
1501 1423865234 970.8893
1502 1423869140 977.1710
1503 1423873046 975.1416
1504 1423876953 972.4435
1505 1423880859 977.1879
1506 1423884765 975.5336
1507 1423888671 974.2549
1508 1423892578 974.2225
1509 1423896484 972.9201
1510 1423900390 973.9609
1511 1423904296 976.5161
1512 1423908203 974.4282
1513 1423912109 971.0021
1514 1423916015 971.8882
1515 1423919921 975.2188
1516 1423923828 971.9424
1517 1423927734 973.3315
1518 1423931640 975.1453
1519 1423935546 975.2284
1520 1423939453 973.1076
1521 1423943359 968.9041
1522 1423947265 968.5433
1523 1423951171 969.3873
1524 1423955078 973.0195
1525 1423958984 973.3259
1526 1423962890 974.0956
1527 1423966796 968.7267
1528 1423970703 968.7767
1529 1423974609 969.5157
1530 1423978515 966.9306
1531 1423982421 972.5598
1532 1423986328 968.8911
1533 1423990234 971.1671
1534 1423994140 974.6815
1535 1423998046 975.7021
1536 1424001953 980.0283
1537 1424005859 972.6066
1538 1424009765 970.2321
1539 1424013671 965.5648
1540 1424017578 968.8156
1541 1424021484 968.4241
1542 1424025390 966.6809
1543 1424029296 969.4772
1544 1424033203 971.8542
1545 1424037109 971.2278
1546 1424041015 969.7263
1547 1424044921 969.5938
1548 1424048828 971.3746
1549 1424052734 966.8943
1550 1424056640 969.7245
1551 1424060546 968.1189
1552 1424064453 971.5312
1553 1424068359 972.0004
1554 1424072265 969.0806
1555 1424076171 972.2134
1556 1424080078 971.7789
1557 1424083984 973.8747
1558 1424087890 973.4521
1559 1424091796 971.6666
1560 1424095703 974.0832
1561 1424099609 973.5485
1562 1424103515 975.6614
1563 1424107421 977.9515
1564 1424111328 976.0921
1565 1424115234 975.2581
1566 1424119140 977.5527
1567 1424123046 975.9855
1568 1424126953 977.8752
1569 1424130859 978.4075
1570 1424134765 974.9439
1571 1424138671 980.7910
1572 1424142578 979.1606
1573 1424146484 982.9576
1574 1424150390 978.7970
1575 1424154296 979.2848
1576 1424158203 983.9122
1577 1424162109 984.5270
1578 1424166015 983.8569
1579 1424169921 984.6004
1580 1424173828 985.6517
1581 1424177734 990.3065
1582 1424181640 985.0650
1583 1424185546 982.5767
1584 1424189453 988.7646
1585 1424193359 987.8007
1586 1424197265 988.2614
1587 1424201171 989.5692
1588 1424205078 988.9634
1589 1424208984 991.0418
1590 1424212890 994.5147
1591 1424216796 993.4765
1592 1424220703 991.0242
1593 1424224609 994.8637
1594 1424228515 995.0693
1595 1424232421 994.1050
1596 1424236328 997.2397
1597 1424240234 997.9361
1598 1424244140 995.6820
1599 1424248046 998.8004
1600 1424251953 1001.1138
1601 1424255859 1001.6340
1602 1424259765 999.7854
1603 1424263671 1001.1644
1604 1424267578 997.4146
1605 1424271484 1006.5225
1606 1424275390 1005.1517
1607 1424279296 1003.4418
1608 1424283203 1006.5863
1609 1424287109 1008.4954
1610 1424291015 1007.3796
1611 1424294921 1011.9352
1612 1424298828 1009.8168
1613 1424302734 1010.4177
1614 1424306640 1013.1607
1615 1424310546 1011.4619
1616 1424314453 1013.1431
1617 1424318359 1011.8813
1618 1424322265 1008.9146
1619 1424326171 1010.2944
1620 1424330078 1012.8465
1621 1424333984 1011.8702
1622 1424337890 1014.2375
1623 1424341796 1014.1144
1624 1424345703 1014.2003
1625 1424349609 1016.1776
1626 1424353515 1017.3646
1627 1424357421 1015.2885
1628 1424361328 1016.2607
1629 1424365234 1016.7028
1630 1424369140 1017.8891
1631 1424373046 1015.3753
1632 1424376953 1017.7601
1633 1424380859 1016.6141
1634 1424384765 1018.2016
1635 1424388671 1019.0742
1636 1424392578 1020.2070
1637 1424396484 1014.4435
1638 1424400390 1015.5016
1639 1424404296 1014.9900
1640 1424408203 1013.9914
1641 1424412109 1017.6555
1642 1424416015 1018.9167
1643 1424419921 1016.3447
1644 1424423828 1013.9786
1645 1424427734 1016.5945
1646 1424431640 1016.7706
1647 1424435546 1015.2144
1648 1424439453 1018.9858
1649 1424443359 1017.4700
1650 1424447265 1017.5233
1651 1424451171 1011.5892
1652 1424455078 1018.3834
1653 1424458984 1014.4172
1654 1424462890 1014.1420
1655 1424466796 1013.4410
1656 1424470703 1011.0845
1657 1424474609 1015.3121
1658 1424478515 1018.2003
1659 1424482421 1016.4414
1660 1424486328 1014.1071
1661 1424490234 1012.8578
1662 1424494140 1015.4575
1663 1424498046 1015.4144
1664 1424501953 1011.5856
1665 1424505859 1011.8917
1666 1424509765 1011.7255
1667 1424513671 1013.6371
1668 1424517578 1011.6322
1669 1424521484 1016.2468
1670 1424525390 1015.6244
1671 1424529296 1011.4500
1672 1424533203 1010.8201
1673 1424537109 1008.7105
1674 1424541015 1008.0547
1675 1424544921 1010.3485
1676 1424548828 1013.3495
1677 1424552734 1010.2170
1678 1424556640 1011.5052
1679 1424560546 1011.5170
1680 1424564453 1011.0958
1681 1424568359 1013.5880
1682 1424572265 1009.9930
1683 1424576171 1010.3857
1684 1424580078 1012.8375
1685 1424583984 1009.5609
1686 1424587890 1013.9721
1687 1424591796 1009.5371
1688 1424595703 1010.8214
1689 1424599609 1011.2624
1690 1424603515 1006.7523
1691 1424607421 1010.2086
1692 1424611328 1007.2423
1693 1424615234 1007.9092
1694 1424619140 1008.4607
1695 1424623046 1011.0790
1696 1424626953 1009.5183
1697 1424630859 1007.0677
1698 1424634765 1008.7568
1699 1424638671 1005.4909
1700 1424642578 1008.0212
1701 1424646484 1007.0828
1702 1424650390 1006.2296
1703 1424654296 1001.2410
1704 1424658203 1001.6509
1705 1424662109 1004.6260
1706 1424666015 1001.2318
1707 1424669921 1000.3883
1708 1424673828 1003.2810
1709 1424677734 1004.0241
1710 1424681640 1005.8115
1711 1424685546 1004.5899
1712 1424689453 1001.3368
1713 1424693359 1000.8342
1714 1424697265 1001.9942
1715 1424701171 1001.9550
1716 1424705078 1002.3777
1717 1424708984 997.5779
1718 1424712890 994.0001
1719 1424716796 995.1768
1720 1424720703 997.5060
1721 1424724609 992.0104
1722 1424728515 990.2280
1723 1424732421 990.4929
1724 1424736328 994.9423
1725 1424740234 991.6832
1726 1424744140 993.1885
1727 1424748046 996.5368
1728 1424751953 988.1303
1729 1424755859 987.8930
1730 1424759765 988.9669
1731 1424763671 989.8204
1732 1424767578 987.3360
1733 1424771484 984.8970
1734 1424775390 984.2900
1735 1424779296 981.7803
1736 1424783203 979.8302
1737 1424787109 981.0969
1738 1424791015 978.3918
1739 1424794921 974.7816
1740 1424798828 975.9053
1741 1424802734 976.5212
1742 1424806640 973.1545
1743 1424810546 973.6059
1744 1424814453 973.3958
1745 1424818359 966.3383
1746 1424822265 968.8274
1747 1424826171 963.9597
1748 1424830078 966.8523
1749 1424833984 963.1025
1750 1424837890 964.9507
1751 1424841796 960.2663
1752 1424845703 956.1596
1753 1424849609 955.1847
1754 1424853515 957.8046
1755 1424857421 954.9153
1756 1424861328 958.1754
1757 1424865234 952.4986
1758 1424869140 949.2697
1759 1424873046 954.4173
1760 1424876953 947.1575
1761 1424880859 943.0379
1762 1424884765 945.5602
1763 1424888671 943.8201
1764 1424892578 938.9888
1765 1424896484 941.1755
1766 1424900390 942.6790
1767 1424904296 939.1149
1768 1424908203 936.6099
1769 1424912109 939.7656
1770 1424916015 937.4250
1771 1424919921 934.7228
1772 1424923828 935.2360
1773 1424927734 933.5061
1774 1424931640 930.1681
1775 1424935546 931.8143
1776 1424939453 929.0873
1777 1424943359 929.3030
1778 1424947265 930.7122
1779 1424951171 933.5480
1780 1424955078 930.4810
1781 1424958984 928.4644
1782 1424962890 929.4279
1783 1424966796 929.6867
1784 1424970703 927.2402
1785 1424974609 932.1355
1786 1424978515 925.8748
1787 1424982421 929.7056
1788 1424986328 927.5547
1789 1424990234 928.0571
1790 1424994140 926.5073
1791 1424998046 927.0616
1792 1425001953 933.7580
1793 1425005859 975.5756
1794 1425009765 978.6204
1795 1425013671 934.2819
1796 1425017578 931.3257
1797 1425021484 932.1255
1798 1425025390 936.6620
1799 1425029296 937.0133
1800 1425033203 937.0521
1801 1425037109 939.6486
1802 1425041015 940.4971
1803 1425044921 941.4663
1804 1425048828 944.2244
1805 1425052734 946.6647
1806 1425056640 943.1066
1807 1425060546 950.0129
1808 1425064453 950.3906
1809 1425068359 954.5731
1810 1425072265 956.5031
1811 1425076171 954.5649
1812 1425080078 957.9744
1813 1425083984 958.7933
1814 1425087890 966.0970
1815 1425091796 968.3140
1816 1425095703 969.2583
1817 1425099609 971.9177
1818 1425103515 974.6862
1819 1425107421 979.7534
1820 1425111328 985.1782
1821 1425115234 986.5473
1822 1425119140 988.4460
1823 1425123046 990.9060
1824 1425126953 992.8046
1825 1425130859 993.7364
1826 1425134765 1000.8380
1827 1425138671 1003.1591
1828 1425142578 1004.7987
1829 1425146484 1008.5270
1830 1425150390 1008.4816
1831 1425154296 1010.8788
1832 1425158203 1016.7666
1833 1425162109 1020.4600
1834 1425166015 1022.1324
1835 1425169921 1026.2112
1836 1425173828 1026.2340
1837 1425177734 1036.3093
1838 1425181640 1038.3712
1839 1425185546 1035.2329
1840 1425189453 1033.6031
1841 1425193359 1040.0338
1842 1425197265 1042.4962
1843 1425201171 1046.4015
1844 1425205078 1043.6372
1845 1425208984 1048.9028
1846 1425212890 1050.6290
1847 1425216796 1047.9597
1848 1425220703 1050.8835
1849 1425224609 1053.1091
1850 1425228515 1050.7805
1851 1425232421 1053.4684
1852 1425236328 1051.8459
1853 1425240234 1058.0148
1854 1425244140 1054.6566
1855 1425248046 1052.3967
1856 1425251953 1054.3342
1857 1425255859 1052.4680
1858 1425259765 1051.3492
1859 1425263671 1047.1300
1860 1425267578 1049.9659
1861 1425271484 1045.6304
1862 1425275390 1044.3713
1863 1425279296 1041.9751
1864 1425283203 1040.7830
1865 1425287109 1035.1682
1866 1425291015 1033.6730
1867 1425294921 1025.5742
1868 1425298828 1020.9219
1869 1425302734 1018.6998
1870 1425306640 1009.0812
1871 1425310546 1009.0430
1872 1425314453 1002.8082
1873 1425318359 995.4708
1874 1425322265 988.6115
1875 1425326171 985.7330
1876 1425330078 973.6560
1877 1425333984 964.5327
1878 1425337890 955.8201
1879 1425341796 948.4153
1880 1425345703 938.0048
1881 1425349609 927.2219
1882 1425353515 918.8746
1883 1425357421 909.5491
1884 1425361328 902.2735
1885 1425365234 893.1122
1886 1425369140 880.0804
1887 1425373046 864.0532
1888 1425376953 857.6971
1889 1425380859 844.0963
1890 1425384765 831.3715
1891 1425388671 816.6902
1892 1425392578 805.7617
1893 1425396484 792.3909
1894 1425400390 781.2952
1895 1425404296 766.8784
1896 1425408203 751.4500
1897 1425412109 739.9993
1898 1425416015 724.9896
1899 1425419921 706.0978
1900 1425423828 695.2276
1901 1425427734 678.3950
1902 1425431640 661.9924
1903 1425435546 648.6448
1904 1425439453 634.4991
1905 1425443359 618.5231
1906 1425447265 603.3782
1907 1425451171 586.9025
1908 1425455078 571.0373
1909 1425458984 557.7557
1910 1425462890 542.9720
1911 1425466796 526.0000
1912 1425470703 513.7751
1913 1425474609 496.2315
1914 1425478515 479.5324
1915 1425482421 462.8798
1916 1425486328 447.7843
1917 1425490234 432.7135
1918 1425494140 418.3372
1919 1425498046 405.4926
1920 1425501953 389.9734
1921 1425505859 375.9539
1922 1425509765 360.9824
1923 1425513671 347.3374
1924 1425517578 333.8395
1925 1425521484 320.0641
1926 1425525390 305.9449
1927 1425529296 293.5307
1928 1425533203 281.2557
1929 1425537109 268.3237
1930 1425541015 256.2548
1931 1425544921 244.4889
1932 1425548828 232.9569
1933 1425552734 221.6957
1934 1425556640 210.6933
1935 1425560546 199.8874
1936 1425564453 189.0017
1937 1425568359 179.7178
1938 1425572265 170.2748
1939 1425576171 160.0409
1940 1425580078 151.1723
1941 1425583984 142.2071
1942 1425587890 134.7270
1943 1425591796 125.8167
1944 1425595703 117.9855
1945 1425599609 110.5422
1946 1425603515 103.2217
1947 1425607421 96.6684
1948 1425611328 90.2303
1949 1425615234 83.9057
1950 1425619140 77.8432
1951 1425623046 72.8353
1952 1425626953 67.1547
1953 1425630859 62.2951
1954 1425634765 57.7335
1955 1425638671 53.0918
1956 1425642578 48.7275
1957 1425646484 44.6777
1958 1425650390 41.1201
1959 1425654296 37.5756
1960 1425658203 34.1122
1961 1425662109 31.1701
1962 1425666015 28.3404
1963 1425669921 25.8195
1964 1425673828 23.1881
1965 1425677734 20.8422
1966 1425681640 18.7574
1967 1425685546 16.8873
1968 1425689453 15.0599
1969 1425693359 13.4443
1970 1425697265 11.8530
1971 1425701171 10.4495
1972 1425705078 9.2108
1973 1425708984 8.0771
1974 1425712890 7.0327
1975 1425716796 6.1073
1976 1425720703 5.2874
1977 1425724609 4.5277
1978 1425728515 3.8519
1979 1425732421 3.2500
1980 1425736328 2.7467
1981 1425740234 2.2772
1982 1425744140 1.8731
1983 1425748046 1.5252
1984 1425751953 1.2318
1985 1425755859 0.9765
1986 1425759765 0.7582
1987 1425763671 0.5766
1988 1425767578 0.4303
1989 1425771484 0.3104
1990 1425775390 0.2170
1991 1425779296 0.1455
1992 1425783203 0.0935
1993 1425787109 0.0587
1994 1425791015 0.0392
1995 1425794921 0.0321
1996 1425798828 0.0360
1997 1425802734 0.0489
1998 1425806640 0.0689
1999 1425810546 0.0952
2000 1425814453 0.1268
2001 1425818359 0.1614
2002 1425822265 0.1981
2003 1425826171 0.2376
2004 1425830078 0.2783
2005 1425833984 0.3184
2006 1425837890 0.3593
2007 1425841796 0.3989
2008 1425845703 0.4387
2009 1425849609 0.4755
2010 1425853515 0.5110
2011 1425857421 0.5467
2012 1425861328 0.5780
2013 1425865234 0.6086
2014 1425869140 0.6341
2015 1425873046 0.6599
2016 1425876953 0.6824
2017 1425880859 0.7036
2018 1425884765 0.7237
2019 1425888671 0.7428
2020 1425892578 0.7562
2021 1425896484 0.7684
2022 1425900390 0.7839
2023 1425904296 0.7970
2024 1425908203 0.8001
2025 1425912109 0.8091
2026 1425916015 0.8176
2027 1425919921 0.8229
2028 1425923828 0.8255
2029 1425927734 0.8294
2030 1425931640 0.8306
2031 1425935546 0.8308
2032 1425939453 0.8324
2033 1425943359 0.8347
2034 1425947265 0.8318
2035 1425951171 0.8351
2036 1425955078 0.8374
2037 1425958984 0.8326
2038 1425962890 0.8318
2039 1425966796 0.8313
2040 1425970703 0.8329
2041 1425974609 0.8344
2042 1425978515 0.8337
2043 1425982421 0.8291
2044 1425986328 0.8315
2045 1425990234 0.8307
2046 1425994140 0.8331
2047 1425998046 0.8294
