# File: 20-11-28T180022.hot
# NOTEA     = RSP1A+GPIOLabs Pi #1 On Horn
# NOTEB     = Sdrplay 8 MHz Test
# OBSERVER  = Science Aficionado
# DEVICE    = SDRPlay RSP1A
# DATADIR   = ../data/
# SITE      = RSP1A+GPIOLabs Pi #1 On Horn
# CITY      = Green Bank
# REGION    = West Virginia
# COUNTRY   = US
# TELTYPE   = Bubble Wrap  Horn
# FRAME     = TOPO
# GAIN1     = 0.0
# GAIN2     = 12.0
# GAIN3     = 12.0
# GAIN4     = 0.0
# Count     = 360000
# CenterFreq= 1422000000.0
# Bandwidth = 8000000.0
# Duration  = 157.30314
# DeltaX    = 5859.375
# TSYS      = 200.0
# TRX       = 100.0
# TRMS      = 2.0
# TINT      = 1.0
# KPERC     = 100.0
# GAINFACT  = 1.0
# BUNIT     = Counts
# NCHAN     = 2048
# NSPEC     = 1
# NTIME     = 0
# NSAMPLES  = 0
# EPEAK     = 4.10875183718
# ERMS      = 0.995973393526
# EMJD      = 58568.808999981004 
# REFCHAN   = 1024.0
# REFSAMPL  = 256.0
# NAVE      = 600
# NMEDIAN   = 1024
# Fft_rate  = 5000
# UTC       = 2020-11-28 18:00:22.705730
# SECONDS   =       0.0000000000 
# LST       = 17:13:23.160
# AZ        = 180.0
# EL        = -40.0
# TELLON    = -79:50:22.920
# TELLAT    = +38:25:59.160
# RA        = 05:44:15.950
# DEC       = -88:27:57.900
# GALLON    = 301:16:31.40
# GALLAT    = -27:33:42.10
# ALT_SUN   = +28:51:11.5
# AZ_SUN    = +194:02:47.7
# ETAA      = 0.8
# ETAB      = 0.99
# POLANGLE  = 0.0
# TELSIZEAM = 1.0
# TELSIZEBM = 1.0
# AST_VERS  = 05.01
0000 1418001953 0.8210
0001 1418005859 0.8193
0002 1418009765 0.8204
0003 1418013671 0.8219
0004 1418017578 0.8241
0005 1418021484 0.8232
0006 1418025390 0.8278
0007 1418029296 0.8267
0008 1418033203 0.8327
0009 1418037109 0.8314
0010 1418041015 0.8331
0011 1418044921 0.8384
0012 1418048828 0.8410
0013 1418052734 0.8419
0014 1418056640 0.8447
0015 1418060546 0.8451
0016 1418064453 0.8478
0017 1418068359 0.8488
0018 1418072265 0.8479
0019 1418076171 0.8450
0020 1418080078 0.8455
0021 1418083984 0.8350
0022 1418087890 0.8315
0023 1418091796 0.8264
0024 1418095703 0.8226
0025 1418099609 0.8157
0026 1418103515 0.8028
0027 1418107421 0.7898
0028 1418111328 0.7777
0029 1418115234 0.7627
0030 1418119140 0.7410
0031 1418123046 0.7239
0032 1418126953 0.7027
0033 1418130859 0.6813
0034 1418134765 0.6551
0035 1418138671 0.6281
0036 1418142578 0.5948
0037 1418146484 0.5617
0038 1418150390 0.5278
0039 1418154296 0.4906
0040 1418158203 0.4527
0041 1418162109 0.4119
0042 1418166015 0.3713
0043 1418169921 0.3279
0044 1418173828 0.2873
0045 1418177734 0.2454
0046 1418181640 0.2049
0047 1418185546 0.1659
0048 1418189453 0.1296
0049 1418193359 0.0976
0050 1418197265 0.0704
0051 1418201171 0.0496
0052 1418205078 0.0362
0053 1418208984 0.0323
0054 1418212890 0.0397
0055 1418216796 0.0602
0056 1418220703 0.0960
0057 1418224609 0.1494
0058 1418228515 0.2234
0059 1418232421 0.3211
0060 1418236328 0.4461
0061 1418240234 0.5997
0062 1418244140 0.7855
0063 1418248046 1.0091
0064 1418251953 1.2657
0065 1418255859 1.5860
0066 1418259765 1.9435
0067 1418263671 2.3624
0068 1418267578 2.8389
0069 1418271484 3.3846
0070 1418275390 3.9896
0071 1418279296 4.6941
0072 1418283203 5.4673
0073 1418287109 6.3382
0074 1418291015 7.2886
0075 1418294921 8.3815
0076 1418298828 9.5639
0077 1418302734 10.8270
0078 1418306640 12.3153
0079 1418310546 13.9080
0080 1418314453 15.5662
0081 1418318359 17.3873
0082 1418322265 19.4215
0083 1418326171 21.6405
0084 1418330078 23.9602
0085 1418333984 26.5466
0086 1418337890 29.2978
0087 1418341796 32.2477
0088 1418345703 35.4169
0089 1418349609 38.9698
0090 1418353515 42.5554
0091 1418357421 46.4538
0092 1418361328 50.6431
0093 1418365234 54.9014
0094 1418369140 59.5342
0095 1418373046 64.4589
0096 1418376953 69.7997
0097 1418380859 75.4789
0098 1418384765 81.5005
0099 1418388671 87.2056
0100 1418392578 93.7337
0101 1418396484 100.8200
0102 1418400390 107.4456
0103 1418404296 114.8803
0104 1418408203 122.6014
0105 1418412109 130.3273
0106 1418416015 138.4411
0107 1418419921 147.4041
0108 1418423828 156.3583
0109 1418427734 166.5134
0110 1418431640 175.4850
0111 1418435546 185.5123
0112 1418439453 196.2334
0113 1418443359 206.6404
0114 1418447265 217.7124
0115 1418451171 229.9366
0116 1418455078 240.1781
0117 1418458984 252.9331
0118 1418462890 266.1119
0119 1418466796 278.4243
0120 1418470703 291.9290
0121 1418474609 305.9532
0122 1418478515 318.6768
0123 1418482421 330.7669
0124 1418486328 346.8292
0125 1418490234 360.2869
0126 1418494140 375.9746
0127 1418498046 388.8975
0128 1418501953 404.9643
0129 1418505859 418.3725
0130 1418509765 434.0099
0131 1418513671 448.8351
0132 1418517578 466.9131
0133 1418521484 482.2334
0134 1418525390 497.9205
0135 1418529296 512.8886
0136 1418533203 526.9244
0137 1418537109 545.0549
0138 1418541015 561.6414
0139 1418544921 577.3063
0140 1418548828 594.2946
0141 1418552734 610.2407
0142 1418556640 624.7540
0143 1418560546 640.6704
0144 1418564453 658.2962
0145 1418568359 672.2269
0146 1418572265 689.9345
0147 1418576171 706.2145
0148 1418580078 722.1770
0149 1418583984 735.7487
0150 1418587890 749.2568
0151 1418591796 762.1896
0152 1418595703 779.1224
0153 1418599609 796.1600
0154 1418603515 808.8704
0155 1418607421 823.5439
0156 1418611328 837.8781
0157 1418615234 853.5588
0158 1418619140 863.1052
0159 1418623046 873.1098
0160 1418626953 888.1279
0161 1418630859 899.9510
0162 1418634765 906.0383
0163 1418638671 923.2487
0164 1418642578 931.4927
0165 1418646484 941.6054
0166 1418650390 957.2698
0167 1418654296 970.2740
0168 1418658203 976.1422
0169 1418662109 980.4364
0170 1418666015 998.3113
0171 1418669921 1000.9427
0172 1418673828 1009.5422
0173 1418677734 1016.6728
0174 1418681640 1019.7078
0175 1418685546 1032.1901
0176 1418689453 1038.6526
0177 1418693359 1039.4773
0178 1418697265 1052.1605
0179 1418701171 1055.4097
0180 1418705078 1060.0256
0181 1418708984 1064.3370
0182 1418712890 1069.9692
0183 1418716796 1075.7942
0184 1418720703 1080.5977
0185 1418724609 1082.5081
0186 1418728515 1086.6785
0187 1418732421 1084.6431
0188 1418736328 1087.1832
0189 1418740234 1088.9419
0190 1418744140 1092.2517
0191 1418748046 1093.3386
0192 1418751953 1090.6636
0193 1418755859 1092.0958
0194 1418759765 1096.0830
0195 1418763671 1095.6072
0196 1418767578 1093.8228
0197 1418771484 1091.3613
0198 1418775390 1089.1484
0199 1418779296 1091.3541
0200 1418783203 1089.0327
0201 1418787109 1090.1229
0202 1418791015 1090.2122
0203 1418794921 1091.1416
0204 1418798828 1082.9171
0205 1418802734 1087.1740
0206 1418806640 1081.6661
0207 1418810546 1082.3362
0208 1418814453 1075.0809
0209 1418818359 1073.8992
0210 1418822265 1076.3069
0211 1418826171 1071.0568
0212 1418830078 1065.1150
0213 1418833984 1064.8156
0214 1418837890 1061.4659
0215 1418841796 1058.3010
0216 1418845703 1052.0013
0217 1418849609 1053.3763
0218 1418853515 1048.8966
0219 1418857421 1046.7264
0220 1418861328 1041.6289
0221 1418865234 1041.4203
0222 1418869140 1039.5187
0223 1418873046 1031.9681
0224 1418876953 1030.8901
0225 1418880859 1023.9166
0226 1418884765 1019.5059
0227 1418888671 1018.7194
0228 1418892578 1020.6768
0229 1418896484 1017.2858
0230 1418900390 1015.0372
0231 1418904296 1011.4049
0232 1418908203 1007.0284
0233 1418912109 1006.9608
0234 1418916015 1002.8925
0235 1418919921 998.9749
0236 1418923828 994.4378
0237 1418927734 993.4745
0238 1418931640 993.2747
0239 1418935546 986.0851
0240 1418939453 985.8134
0241 1418943359 981.1910
0242 1418947265 981.5179
0243 1418951171 981.5039
0244 1418955078 972.0497
0245 1418958984 973.7390
0246 1418962890 975.5330
0247 1418966796 976.2615
0248 1418970703 975.3919
0249 1418974609 968.5938
0250 1418978515 967.2347
0251 1418982421 966.0226
0252 1418986328 968.0378
0253 1418990234 967.5165
0254 1418994140 965.0087
0255 1418998046 966.1886
0256 1419001953 962.6282
0257 1419005859 962.5810
0258 1419009765 967.4581
0259 1419013671 963.3095
0260 1419017578 962.2137
0261 1419021484 962.8962
0262 1419025390 962.8058
0263 1419029296 961.9487
0264 1419033203 961.6274
0265 1419037109 959.7996
0266 1419041015 958.6768
0267 1419044921 960.7971
0268 1419048828 961.0526
0269 1419052734 960.4787
0270 1419056640 962.3560
0271 1419060546 965.8467
0272 1419064453 961.6927
0273 1419068359 964.3481
0274 1419072265 963.1822
0275 1419076171 963.8266
0276 1419080078 964.6645
0277 1419083984 968.3698
0278 1419087890 965.5723
0279 1419091796 969.6879
0280 1419095703 968.3606
0281 1419099609 970.0319
0282 1419103515 970.8781
0283 1419107421 972.1968
0284 1419111328 975.0975
0285 1419115234 978.4990
0286 1419119140 979.5823
0287 1419123046 979.9570
0288 1419126953 980.3288
0289 1419130859 980.9846
0290 1419134765 983.4684
0291 1419138671 981.8395
0292 1419142578 980.7410
0293 1419146484 987.1580
0294 1419150390 986.9422
0295 1419154296 991.7237
0296 1419158203 990.9322
0297 1419162109 995.1982
0298 1419166015 997.0594
0299 1419169921 994.6155
0300 1419173828 993.6685
0301 1419177734 999.3646
0302 1419181640 1000.3873
0303 1419185546 999.8863
0304 1419189453 1004.2429
0305 1419193359 1000.2620
0306 1419197265 1004.2632
0307 1419201171 1003.2877
0308 1419205078 1005.2524
0309 1419208984 1007.5578
0310 1419212890 1006.4284
0311 1419216796 1008.3571
0312 1419220703 1010.0546
0313 1419224609 1012.2125
0314 1419228515 1012.7502
0315 1419232421 1016.5667
0316 1419236328 1013.7117
0317 1419240234 1016.0656
0318 1419244140 1018.0067
0319 1419248046 1018.4310
0320 1419251953 1019.1405
0321 1419255859 1019.4857
0322 1419259765 1021.8251
0323 1419263671 1016.0935
0324 1419267578 1017.8437
0325 1419271484 1024.4821
0326 1419275390 1023.9103
0327 1419279296 1022.8521
0328 1419283203 1026.3246
0329 1419287109 1021.8610
0330 1419291015 1027.2883
0331 1419294921 1023.3067
0332 1419298828 1030.4592
0333 1419302734 1030.6976
0334 1419306640 1029.0914
0335 1419310546 1031.4734
0336 1419314453 1032.3252
0337 1419318359 1034.3302
0338 1419322265 1031.1161
0339 1419326171 1030.3983
0340 1419330078 1030.6748
0341 1419333984 1028.3087
0342 1419337890 1034.0642
0343 1419341796 1032.9083
0344 1419345703 1036.9194
0345 1419349609 1036.8992
0346 1419353515 1035.3063
0347 1419357421 1035.7059
0348 1419361328 1035.9843
0349 1419365234 1035.0991
0350 1419369140 1036.3671
0351 1419373046 1034.1846
0352 1419376953 1035.0299
0353 1419380859 1036.4037
0354 1419384765 1034.2814
0355 1419388671 1032.3654
0356 1419392578 1032.9336
0357 1419396484 1035.6407
0358 1419400390 1036.9144
0359 1419404296 1035.2992
0360 1419408203 1040.1333
0361 1419412109 1036.7346
0362 1419416015 1038.9698
0363 1419419921 1039.8333
0364 1419423828 1038.2327
0365 1419427734 1035.2854
0366 1419431640 1036.1886
0367 1419435546 1035.4611
0368 1419439453 1039.4010
0369 1419443359 1039.0121
0370 1419447265 1038.5244
0371 1419451171 1038.3331
0372 1419455078 1037.9714
0373 1419458984 1041.2847
0374 1419462890 1037.4988
0375 1419466796 1039.1854
0376 1419470703 1040.8999
0377 1419474609 1037.3997
0378 1419478515 1038.7251
0379 1419482421 1042.2312
0380 1419486328 1035.5271
0381 1419490234 1035.4353
0382 1419494140 1038.3870
0383 1419498046 1039.8131
0384 1419501953 1041.5560
0385 1419505859 1043.0049
0386 1419509765 1040.5756
0387 1419513671 1042.4991
0388 1419517578 1047.0508
0389 1419521484 1044.6735
0390 1419525390 1044.5367
0391 1419529296 1039.0284
0392 1419533203 1043.0419
0393 1419537109 1043.3073
0394 1419541015 1042.5062
0395 1419544921 1044.4358
0396 1419548828 1041.9539
0397 1419552734 1037.8781
0398 1419556640 1041.0156
0399 1419560546 1039.5278
0400 1419564453 1036.5563
0401 1419568359 1041.9999
0402 1419572265 1041.9055
0403 1419576171 1039.7379
0404 1419580078 1040.4529
0405 1419583984 1041.8629
0406 1419587890 1041.8347
0407 1419591796 1043.4591
0408 1419595703 1042.9512
0409 1419599609 1041.4191
0410 1419603515 1038.5930
0411 1419607421 1039.6414
0412 1419611328 1039.8307
0413 1419615234 1039.6708
0414 1419619140 1037.4504
0415 1419623046 1044.1361
0416 1419626953 1043.0916
0417 1419630859 1036.3561
0418 1419634765 1036.5592
0419 1419638671 1040.0476
0420 1419642578 1039.7183
0421 1419646484 1037.7507
0422 1419650390 1036.9327
0423 1419654296 1037.1471
0424 1419658203 1034.3888
0425 1419662109 1036.3412
0426 1419666015 1036.4633
0427 1419669921 1035.8640
0428 1419673828 1031.4845
0429 1419677734 1038.4727
0430 1419681640 1031.2251
0431 1419685546 1032.6805
0432 1419689453 1032.4515
0433 1419693359 1031.0551
0434 1419697265 1030.4003
0435 1419701171 1031.1355
0436 1419705078 1027.3932
0437 1419708984 1032.1141
0438 1419712890 1028.9681
0439 1419716796 1025.1617
0440 1419720703 1024.7604
0441 1419724609 1023.2246
0442 1419728515 1025.6357
0443 1419732421 1026.4082
0444 1419736328 1025.3014
0445 1419740234 1024.8124
0446 1419744140 1020.7499
0447 1419748046 1022.3632
0448 1419751953 1018.9011
0449 1419755859 1018.8425
0450 1419759765 1023.3162
0451 1419763671 1020.1745
0452 1419767578 1021.1734
0453 1419771484 1014.7234
0454 1419775390 1016.2880
0455 1419779296 1013.3494
0456 1419783203 1010.2531
0457 1419787109 1012.4035
0458 1419791015 1010.6533
0459 1419794921 1011.3470
0460 1419798828 1010.8932
0461 1419802734 1004.5727
0462 1419806640 1007.9145
0463 1419810546 1006.4653
0464 1419814453 1003.8342
0465 1419818359 1006.4907
0466 1419822265 1003.7117
0467 1419826171 1001.7075
0468 1419830078 1000.9996
0469 1419833984 1000.2687
0470 1419837890 998.4775
0471 1419841796 1001.5689
0472 1419845703 997.7893
0473 1419849609 998.9351
0474 1419853515 1000.4255
0475 1419857421 997.2333
0476 1419861328 994.4827
0477 1419865234 995.2253
0478 1419869140 994.4916
0479 1419873046 990.3478
0480 1419876953 988.0670
0481 1419880859 991.8540
0482 1419884765 995.4904
0483 1419888671 993.9976
0484 1419892578 987.8167
0485 1419896484 992.5226
0486 1419900390 984.5517
0487 1419904296 986.2883
0488 1419908203 984.8126
0489 1419912109 985.3254
0490 1419916015 986.1655
0491 1419919921 984.5820
0492 1419923828 988.0081
0493 1419927734 987.5471
0494 1419931640 985.9312
0495 1419935546 984.8585
0496 1419939453 982.7644
0497 1419943359 984.6770
0498 1419947265 987.4290
0499 1419951171 983.9426
0500 1419955078 986.7366
0501 1419958984 985.9112
0502 1419962890 980.8802
0503 1419966796 979.9005
0504 1419970703 985.0909
0505 1419974609 984.1489
0506 1419978515 980.5810
0507 1419982421 984.6951
0508 1419986328 983.6215
0509 1419990234 982.6204
0510 1419994140 981.6253
0511 1419998046 983.7682
0512 1420001953 983.3845
0513 1420005859 983.5918
0514 1420009765 984.1929
0515 1420013671 979.1116
0516 1420017578 983.8928
0517 1420021484 986.7648
0518 1420025390 987.3717
0519 1420029296 984.4270
0520 1420033203 981.6867
0521 1420037109 983.9686
0522 1420041015 984.9440
0523 1420044921 984.8133
0524 1420048828 983.1644
0525 1420052734 984.4891
0526 1420056640 985.4734
0527 1420060546 987.6177
0528 1420064453 984.8112
0529 1420068359 982.4010
0530 1420072265 983.3577
0531 1420076171 983.5038
0532 1420080078 982.7698
0533 1420083984 985.1413
0534 1420087890 984.9899
0535 1420091796 984.3685
0536 1420095703 983.7343
0537 1420099609 987.8450
0538 1420103515 985.8386
0539 1420107421 981.8383
0540 1420111328 984.1874
0541 1420115234 990.0216
0542 1420119140 990.2515
0543 1420123046 984.6256
0544 1420126953 981.9623
0545 1420130859 987.8094
0546 1420134765 986.2164
0547 1420138671 987.1687
0548 1420142578 985.8280
0549 1420146484 985.2581
0550 1420150390 988.2948
0551 1420154296 988.1921
0552 1420158203 985.1332
0553 1420162109 985.6530
0554 1420166015 983.9584
0555 1420169921 987.3167
0556 1420173828 986.6293
0557 1420177734 986.1799
0558 1420181640 986.1606
0559 1420185546 982.5407
0560 1420189453 978.6194
0561 1420193359 983.0819
0562 1420197265 986.3700
0563 1420201171 982.3239
0564 1420205078 982.5162
0565 1420208984 982.5325
0566 1420212890 979.7466
0567 1420216796 980.0533
0568 1420220703 980.4821
0569 1420224609 981.5156
0570 1420228515 984.3986
0571 1420232421 979.3913
0572 1420236328 980.0978
0573 1420240234 980.8395
0574 1420244140 977.3830
0575 1420248046 975.9845
0576 1420251953 975.8410
0577 1420255859 973.0543
0578 1420259765 975.9824
0579 1420263671 977.4645
0580 1420267578 977.5040
0581 1420271484 972.6765
0582 1420275390 976.2286
0583 1420279296 979.7224
0584 1420283203 973.0947
0585 1420287109 972.3684
0586 1420291015 975.7117
0587 1420294921 971.5493
0588 1420298828 971.2005
0589 1420302734 974.0635
0590 1420306640 970.8275
0591 1420310546 975.1489
0592 1420314453 971.1161
0593 1420318359 968.5667
0594 1420322265 969.0554
0595 1420326171 973.6782
0596 1420330078 969.5540
0597 1420333984 966.5988
0598 1420337890 967.6215
0599 1420341796 967.1231
0600 1420345703 967.2912
0601 1420349609 964.4712
0602 1420353515 964.3128
0603 1420357421 962.8380
0604 1420361328 963.7782
0605 1420365234 963.5161
0606 1420369140 962.3568
0607 1420373046 961.2464
0608 1420376953 961.4811
0609 1420380859 956.3463
0610 1420384765 959.7606
0611 1420388671 957.7366
0612 1420392578 960.2453
0613 1420396484 959.8495
0614 1420400390 959.7326
0615 1420404296 958.3893
0616 1420408203 958.3542
0617 1420412109 957.7507
0618 1420416015 955.4651
0619 1420419921 954.5487
0620 1420423828 955.3386
0621 1420427734 955.3417
0622 1420431640 957.2834
0623 1420435546 957.5667
0624 1420439453 956.9985
0625 1420443359 953.3566
0626 1420447265 954.8764
0627 1420451171 950.0956
0628 1420455078 954.4955
0629 1420458984 949.3361
0630 1420462890 948.0266
0631 1420466796 954.5603
0632 1420470703 952.3397
0633 1420474609 950.7407
0634 1420478515 951.7965
0635 1420482421 952.9518
0636 1420486328 949.1794
0637 1420490234 949.7872
0638 1420494140 945.4706
0639 1420498046 950.6693
0640 1420501953 952.0649
0641 1420505859 953.2318
0642 1420509765 952.5391
0643 1420513671 951.5393
0644 1420517578 950.8323
0645 1420521484 948.6853
0646 1420525390 949.7760
0647 1420529296 952.0705
0648 1420533203 954.0900
0649 1420537109 954.2008
0650 1420541015 954.4783
0651 1420544921 949.0978
0652 1420548828 955.9430
0653 1420552734 951.0507
0654 1420556640 952.3568
0655 1420560546 951.4012
0656 1420564453 952.2405
0657 1420568359 950.8645
0658 1420572265 950.5902
0659 1420576171 949.6055
0660 1420580078 947.5328
0661 1420583984 950.9055
0662 1420587890 950.8858
0663 1420591796 953.0901
0664 1420595703 954.1390
0665 1420599609 953.2256
0666 1420603515 949.3296
0667 1420607421 946.3639
0668 1420611328 951.2850
0669 1420615234 949.2145
0670 1420619140 951.0875
0671 1420623046 951.4144
0672 1420626953 951.4531
0673 1420630859 950.1920
0674 1420634765 950.6232
0675 1420638671 950.7601
0676 1420642578 950.3521
0677 1420646484 952.1056
0678 1420650390 953.0532
0679 1420654296 949.9907
0680 1420658203 944.0659
0681 1420662109 945.4827
0682 1420666015 948.5652
0683 1420669921 945.2568
0684 1420673828 948.9272
0685 1420677734 949.7757
0686 1420681640 948.2242
0687 1420685546 949.4868
0688 1420689453 946.4841
0689 1420693359 949.1180
0690 1420697265 944.3492
0691 1420701171 943.7971
0692 1420705078 947.5967
0693 1420708984 946.5532
0694 1420712890 945.1143
0695 1420716796 946.1406
0696 1420720703 946.0950
0697 1420724609 944.7659
0698 1420728515 945.5125
0699 1420732421 940.9611
0700 1420736328 942.0389
0701 1420740234 944.4479
0702 1420744140 940.7650
0703 1420748046 944.3247
0704 1420751953 938.7478
0705 1420755859 938.3149
0706 1420759765 940.6006
0707 1420763671 940.4931
0708 1420767578 936.1188
0709 1420771484 940.4499
0710 1420775390 934.4354
0711 1420779296 936.1564
0712 1420783203 937.1731
0713 1420787109 938.0396
0714 1420791015 937.2715
0715 1420794921 934.7390
0716 1420798828 932.7731
0717 1420802734 934.8295
0718 1420806640 935.0970
0719 1420810546 936.6571
0720 1420814453 933.4014
0721 1420818359 935.1164
0722 1420822265 934.2150
0723 1420826171 933.3381
0724 1420830078 930.3325
0725 1420833984 932.7955
0726 1420837890 932.7311
0727 1420841796 932.4717
0728 1420845703 932.0021
0729 1420849609 933.7753
0730 1420853515 931.0641
0731 1420857421 929.3075
0732 1420861328 929.5696
0733 1420865234 932.5262
0734 1420869140 931.7394
0735 1420873046 932.6171
0736 1420876953 928.6510
0737 1420880859 931.2952
0738 1420884765 926.7952
0739 1420888671 929.3702
0740 1420892578 932.7742
0741 1420896484 931.9597
0742 1420900390 934.3018
0743 1420904296 931.2314
0744 1420908203 931.5126
0745 1420912109 935.2883
0746 1420916015 937.9374
0747 1420919921 936.9388
0748 1420923828 937.2577
0749 1420927734 933.2314
0750 1420931640 934.2723
0751 1420935546 935.0453
0752 1420939453 936.6912
0753 1420943359 934.6652
0754 1420947265 939.3007
0755 1420951171 936.7436
0756 1420955078 935.8147
0757 1420958984 935.1680
0758 1420962890 937.5494
0759 1420966796 939.4851
0760 1420970703 943.7869
0761 1420974609 945.1513
0762 1420978515 940.7296
0763 1420982421 947.0543
0764 1420986328 949.0461
0765 1420990234 946.6973
0766 1420994140 948.3816
0767 1420998046 950.0820
0768 1421001953 948.2852
0769 1421005859 946.4293
0770 1421009765 947.3385
0771 1421013671 949.6361
0772 1421017578 954.3542
0773 1421021484 949.5776
0774 1421025390 953.2435
0775 1421029296 957.2880
0776 1421033203 957.3627
0777 1421037109 956.0905
0778 1421041015 958.2731
0779 1421044921 958.7934
0780 1421048828 958.9774
0781 1421052734 960.2105
0782 1421056640 962.1193
0783 1421060546 962.6796
0784 1421064453 959.9100
0785 1421068359 964.7682
0786 1421072265 966.8887
0787 1421076171 970.3083
0788 1421080078 966.4191
0789 1421083984 967.5501
0790 1421087890 971.3716
0791 1421091796 964.2996
0792 1421095703 968.7232
0793 1421099609 971.4249
0794 1421103515 968.2656
0795 1421107421 974.2563
0796 1421111328 972.2119
0797 1421115234 974.5295
0798 1421119140 972.7869
0799 1421123046 973.4500
0800 1421126953 975.8810
0801 1421130859 976.3932
0802 1421134765 980.5426
0803 1421138671 976.0948
0804 1421142578 977.1904
0805 1421146484 983.0260
0806 1421150390 981.0077
0807 1421154296 978.8260
0808 1421158203 979.5893
0809 1421162109 982.1727
0810 1421166015 982.0492
0811 1421169921 979.7971
0812 1421173828 980.9648
0813 1421177734 980.6196
0814 1421181640 982.2286
0815 1421185546 981.3458
0816 1421189453 982.5473
0817 1421193359 981.1127
0818 1421197265 980.2947
0819 1421201171 979.8250
0820 1421205078 977.6733
0821 1421208984 980.4081
0822 1421212890 980.5570
0823 1421216796 980.4910
0824 1421220703 976.4020
0825 1421224609 975.1312
0826 1421228515 977.8205
0827 1421232421 981.4188
0828 1421236328 978.7270
0829 1421240234 978.8669
0830 1421244140 977.9866
0831 1421248046 975.2027
0832 1421251953 974.9387
0833 1421255859 972.9985
0834 1421259765 973.0866
0835 1421263671 975.1360
0836 1421267578 967.6682
0837 1421271484 971.6542
0838 1421275390 973.8688
0839 1421279296 967.2658
0840 1421283203 965.2446
0841 1421287109 967.3354
0842 1421291015 965.8405
0843 1421294921 965.4418
0844 1421298828 968.9191
0845 1421302734 962.8088
0846 1421306640 968.4127
0847 1421310546 962.1511
0848 1421314453 962.9941
0849 1421318359 961.7197
0850 1421322265 959.7358
0851 1421326171 959.8257
0852 1421330078 956.2665
0853 1421333984 959.8079
0854 1421337890 958.9763
0855 1421341796 954.9926
0856 1421345703 953.9362
0857 1421349609 953.0710
0858 1421353515 954.2029
0859 1421357421 950.3929
0860 1421361328 951.1075
0861 1421365234 952.7384
0862 1421369140 950.7886
0863 1421373046 950.1757
0864 1421376953 944.9869
0865 1421380859 948.0338
0866 1421384765 946.1643
0867 1421388671 949.6735
0868 1421392578 950.2349
0869 1421396484 948.2770
0870 1421400390 947.8100
0871 1421404296 944.6354
0872 1421408203 942.8098
0873 1421412109 945.4372
0874 1421416015 943.4793
0875 1421419921 942.6645
0876 1421423828 946.0478
0877 1421427734 945.3531
0878 1421431640 943.9265
0879 1421435546 944.7385
0880 1421439453 942.5003
0881 1421443359 947.7285
0882 1421447265 941.7363
0883 1421451171 943.5044
0884 1421455078 941.4166
0885 1421458984 944.1470
0886 1421462890 942.4725
0887 1421466796 942.4499
0888 1421470703 944.2097
0889 1421474609 944.2103
0890 1421478515 946.7330
0891 1421482421 949.7524
0892 1421486328 950.2292
0893 1421490234 944.2621
0894 1421494140 943.7814
0895 1421498046 947.9830
0896 1421501953 949.9674
0897 1421505859 944.7218
0898 1421509765 949.8295
0899 1421513671 948.7909
0900 1421517578 951.2583
0901 1421521484 955.2980
0902 1421525390 954.9402
0903 1421529296 953.3693
0904 1421533203 951.4967
0905 1421537109 955.3373
0906 1421541015 958.9937
0907 1421544921 961.3792
0908 1421548828 960.9008
0909 1421552734 960.9291
0910 1421556640 961.6614
0911 1421560546 963.9426
0912 1421564453 966.6851
0913 1421568359 969.2114
0914 1421572265 970.3265
0915 1421576171 972.6871
0916 1421580078 972.2588
0917 1421583984 973.1782
0918 1421587890 968.0055
0919 1421591796 974.5145
0920 1421595703 972.1865
0921 1421599609 975.8872
0922 1421603515 976.6187
0923 1421607421 979.9538
0924 1421611328 979.0648
0925 1421615234 984.4152
0926 1421619140 987.2333
0927 1421623046 982.9360
0928 1421626953 986.9550
0929 1421630859 988.6974
0930 1421634765 984.8767
0931 1421638671 986.9335
0932 1421642578 988.9054
0933 1421646484 990.1989
0934 1421650390 993.1891
0935 1421654296 992.4659
0936 1421658203 990.3265
0937 1421662109 989.6302
0938 1421666015 990.9907
0939 1421669921 996.0593
0940 1421673828 995.1790
0941 1421677734 997.5984
0942 1421681640 998.7647
0943 1421685546 996.8006
0944 1421689453 996.9463
0945 1421693359 999.5079
0946 1421697265 999.8495
0947 1421701171 998.3188
0948 1421705078 1000.3843
0949 1421708984 1001.6853
0950 1421712890 1000.0645
0951 1421716796 1003.8146
0952 1421720703 1002.2931
0953 1421724609 1001.1633
0954 1421728515 1002.6810
0955 1421732421 1000.9896
0956 1421736328 1003.3167
0957 1421740234 1000.7194
0958 1421744140 998.8840
0959 1421748046 997.5295
0960 1421751953 999.6187
0961 1421755859 994.3575
0962 1421759765 1000.1536
0963 1421763671 997.0259
0964 1421767578 997.8760
0965 1421771484 994.2495
0966 1421775390 992.8704
0967 1421779296 1000.9561
0968 1421783203 995.4141
0969 1421787109 996.3552
0970 1421791015 993.6748
0971 1421794921 992.1832
0972 1421798828 985.7212
0973 1421802734 990.3971
0974 1421806640 986.2408
0975 1421810546 987.1390
0976 1421814453 987.1465
0977 1421818359 987.1633
0978 1421822265 985.4449
0979 1421826171 983.0275
0980 1421830078 981.3969
0981 1421833984 979.4190
0982 1421837890 975.9725
0983 1421841796 981.7656
0984 1421845703 980.3667
0985 1421849609 977.2894
0986 1421853515 978.8004
0987 1421857421 974.0811
0988 1421861328 969.6715
0989 1421865234 971.0331
0990 1421869140 967.0978
0991 1421873046 970.7963
0992 1421876953 971.5256
0993 1421880859 966.8061
0994 1421884765 969.0508
0995 1421888671 963.8065
0996 1421892578 961.5974
0997 1421896484 964.5078
0998 1421900390 963.9468
0999 1421904296 961.9656
1000 1421908203 958.2455
1001 1421912109 955.1477
1002 1421916015 955.8809
1003 1421919921 956.3751
1004 1421923828 955.1002
1005 1421927734 954.4253
1006 1421931640 951.5515
1007 1421935546 951.7521
1008 1421939453 951.3077
1009 1421943359 951.8647
1010 1421947265 952.0239
1011 1421951171 945.8324
1012 1421955078 945.8707
1013 1421958984 947.7885
1014 1421962890 949.2668
1015 1421966796 948.0929
1016 1421970703 947.3438
1017 1421974609 947.8004
1018 1421978515 948.8914
1019 1421982421 945.5898
1020 1421986328 947.5992
1021 1421990234 953.4011
1022 1421994140 956.2561
1023 1421998046 982.6757
1024 1422001953 1066.2919
1025 1422005859 984.2795
1026 1422009765 953.6860
1027 1422013671 951.4531
1028 1422017578 950.3327
1029 1422021484 948.9806
1030 1422025390 946.7213
1031 1422029296 943.9238
1032 1422033203 944.8373
1033 1422037109 946.2381
1034 1422041015 944.5833
1035 1422044921 947.1577
1036 1422048828 946.7245
1037 1422052734 949.0297
1038 1422056640 947.8423
1039 1422060546 946.2975
1040 1422064453 944.0563
1041 1422068359 948.8184
1042 1422072265 947.0835
1043 1422076171 951.3174
1044 1422080078 951.9449
1045 1422083984 953.9808
1046 1422087890 952.8253
1047 1422091796 954.3591
1048 1422095703 955.9206
1049 1422099609 954.9732
1050 1422103515 956.8137
1051 1422107421 959.8191
1052 1422111328 959.7872
1053 1422115234 962.4649
1054 1422119140 959.8951
1055 1422123046 963.5519
1056 1422126953 964.5742
1057 1422130859 964.5527
1058 1422134765 966.0659
1059 1422138671 965.5417
1060 1422142578 966.0479
1061 1422146484 969.2999
1062 1422150390 970.3555
1063 1422154296 972.4087
1064 1422158203 974.6627
1065 1422162109 973.0862
1066 1422166015 975.3932
1067 1422169921 972.6045
1068 1422173828 973.7127
1069 1422177734 977.2426
1070 1422181640 978.1251
1071 1422185546 979.4089
1072 1422189453 982.0568
1073 1422193359 976.7511
1074 1422197265 983.0851
1075 1422201171 981.7955
1076 1422205078 982.5681
1077 1422208984 984.1008
1078 1422212890 980.9300
1079 1422216796 985.0060
1080 1422220703 986.6893
1081 1422224609 990.2935
1082 1422228515 989.0654
1083 1422232421 989.0644
1084 1422236328 988.5405
1085 1422240234 986.4553
1086 1422244140 987.2947
1087 1422248046 988.4911
1088 1422251953 986.2646
1089 1422255859 989.2371
1090 1422259765 989.0969
1091 1422263671 989.8395
1092 1422267578 984.6953
1093 1422271484 989.1869
1094 1422275390 992.0560
1095 1422279296 990.0109
1096 1422283203 985.9587
1097 1422287109 988.5523
1098 1422291015 990.2888
1099 1422294921 988.4557
1100 1422298828 985.8270
1101 1422302734 989.8043
1102 1422306640 986.9363
1103 1422310546 986.0160
1104 1422314453 990.3177
1105 1422318359 984.2714
1106 1422322265 980.6096
1107 1422326171 985.0353
1108 1422330078 982.5544
1109 1422333984 986.3718
1110 1422337890 983.2509
1111 1422341796 978.9368
1112 1422345703 979.3932
1113 1422349609 980.9797
1114 1422353515 978.6198
1115 1422357421 978.2883
1116 1422361328 978.0378
1117 1422365234 975.3859
1118 1422369140 975.0469
1119 1422373046 973.6154
1120 1422376953 972.3926
1121 1422380859 970.5142
1122 1422384765 969.3058
1123 1422388671 969.7065
1124 1422392578 967.9492
1125 1422396484 964.7019
1126 1422400390 961.5983
1127 1422404296 964.3346
1128 1422408203 961.4736
1129 1422412109 960.7906
1130 1422416015 958.8821
1131 1422419921 958.1650
1132 1422423828 958.1664
1133 1422427734 954.7925
1134 1422431640 957.5761
1135 1422435546 952.5858
1136 1422439453 954.3791
1137 1422443359 953.1167
1138 1422447265 950.5942
1139 1422451171 948.6085
1140 1422455078 943.2507
1141 1422458984 950.0236
1142 1422462890 942.7830
1143 1422466796 941.4606
1144 1422470703 941.0608
1145 1422474609 942.1184
1146 1422478515 941.6115
1147 1422482421 939.7067
1148 1422486328 936.9540
1149 1422490234 940.0858
1150 1422494140 938.3450
1151 1422498046 937.8414
1152 1422501953 934.7399
1153 1422505859 933.4153
1154 1422509765 936.8409
1155 1422513671 936.2166
1156 1422517578 938.1505
1157 1422521484 934.1143
1158 1422525390 933.4694
1159 1422529296 934.7580
1160 1422533203 930.9722
1161 1422537109 930.8696
1162 1422541015 931.6340
1163 1422544921 932.3171
1164 1422548828 930.3224
1165 1422552734 928.6352
1166 1422556640 929.1185
1167 1422560546 928.6912
1168 1422564453 928.7230
1169 1422568359 929.3626
1170 1422572265 931.0637
1171 1422576171 930.5129
1172 1422580078 931.0677
1173 1422583984 929.0896
1174 1422587890 928.9490
1175 1422591796 932.4854
1176 1422595703 934.2473
1177 1422599609 931.3223
1178 1422603515 933.0562
1179 1422607421 935.4405
1180 1422611328 933.9453
1181 1422615234 934.0018
1182 1422619140 933.6406
1183 1422623046 937.2854
1184 1422626953 936.7061
1185 1422630859 935.0422
1186 1422634765 934.9146
1187 1422638671 935.3311
1188 1422642578 933.8347
1189 1422646484 933.5635
1190 1422650390 939.5958
1191 1422654296 943.2947
1192 1422658203 938.6413
1193 1422662109 943.0539
1194 1422666015 941.9890
1195 1422669921 943.8591
1196 1422673828 944.4750
1197 1422677734 945.8795
1198 1422681640 943.4570
1199 1422685546 944.2072
1200 1422689453 948.2275
1201 1422693359 949.7757
1202 1422697265 949.3680
1203 1422701171 951.7298
1204 1422705078 951.7597
1205 1422708984 954.2360
1206 1422712890 951.6204
1207 1422716796 956.1072
1208 1422720703 951.5764
1209 1422724609 954.8138
1210 1422728515 959.7122
1211 1422732421 954.2491
1212 1422736328 957.1870
1213 1422740234 957.0026
1214 1422744140 959.7715
1215 1422748046 959.4569
1216 1422751953 957.2676
1217 1422755859 961.3096
1218 1422759765 959.4791
1219 1422763671 964.1905
1220 1422767578 964.3070
1221 1422771484 964.3166
1222 1422775390 962.1855
1223 1422779296 964.5895
1224 1422783203 969.3558
1225 1422787109 965.2509
1226 1422791015 966.3569
1227 1422794921 963.7268
1228 1422798828 965.0190
1229 1422802734 962.4423
1230 1422806640 967.7095
1231 1422810546 963.3255
1232 1422814453 963.7789
1233 1422818359 965.5924
1234 1422822265 964.9263
1235 1422826171 965.8391
1236 1422830078 963.4789
1237 1422833984 963.8263
1238 1422837890 960.4586
1239 1422841796 964.3973
1240 1422845703 965.3607
1241 1422849609 964.9260
1242 1422853515 961.8220
1243 1422857421 961.2406
1244 1422861328 959.9225
1245 1422865234 961.4457
1246 1422869140 962.5594
1247 1422873046 961.4834
1248 1422876953 961.5261
1249 1422880859 957.5532
1250 1422884765 959.6537
1251 1422888671 959.8907
1252 1422892578 956.0511
1253 1422896484 957.9276
1254 1422900390 957.4296
1255 1422904296 957.9776
1256 1422908203 955.7498
1257 1422912109 955.9404
1258 1422916015 954.2487
1259 1422919921 951.2784
1260 1422923828 949.7719
1261 1422927734 948.9960
1262 1422931640 947.8251
1263 1422935546 948.8222
1264 1422939453 945.4751
1265 1422943359 946.4880
1266 1422947265 946.0444
1267 1422951171 945.2568
1268 1422955078 944.7947
1269 1422958984 943.5219
1270 1422962890 942.3103
1271 1422966796 941.6799
1272 1422970703 942.4827
1273 1422974609 937.3560
1274 1422978515 939.3860
1275 1422982421 937.1727
1276 1422986328 936.4747
1277 1422990234 935.3660
1278 1422994140 934.0839
1279 1422998046 932.9193
1280 1423001953 932.8870
1281 1423005859 929.7795
1282 1423009765 934.5980
1283 1423013671 932.3390
1284 1423017578 929.9394
1285 1423021484 931.3925
1286 1423025390 929.8771
1287 1423029296 923.8865
1288 1423033203 928.7269
1289 1423037109 928.7175
1290 1423041015 925.4462
1291 1423044921 923.5871
1292 1423048828 922.5715
1293 1423052734 920.1239
1294 1423056640 923.7288
1295 1423060546 922.7075
1296 1423064453 920.7707
1297 1423068359 918.4066
1298 1423072265 917.9002
1299 1423076171 918.1387
1300 1423080078 918.1613
1301 1423083984 916.5027
1302 1423087890 919.7026
1303 1423091796 916.1818
1304 1423095703 917.0692
1305 1423099609 916.0809
1306 1423103515 917.6196
1307 1423107421 915.1954
1308 1423111328 914.0892
1309 1423115234 915.5881
1310 1423119140 915.9410
1311 1423123046 914.5888
1312 1423126953 915.7336
1313 1423130859 917.3807
1314 1423134765 915.6973
1315 1423138671 917.4100
1316 1423142578 915.2941
1317 1423146484 919.3558
1318 1423150390 917.8199
1319 1423154296 920.0088
1320 1423158203 913.7888
1321 1423162109 916.6345
1322 1423166015 917.4150
1323 1423169921 915.4099
1324 1423173828 919.7385
1325 1423177734 920.0762
1326 1423181640 919.3115
1327 1423185546 918.4658
1328 1423189453 919.0945
1329 1423193359 919.0239
1330 1423197265 913.8549
1331 1423201171 916.1794
1332 1423205078 915.9769
1333 1423208984 917.9376
1334 1423212890 919.6606
1335 1423216796 917.8085
1336 1423220703 919.4539
1337 1423224609 920.1299
1338 1423228515 919.8961
1339 1423232421 921.3928
1340 1423236328 920.3710
1341 1423240234 922.7146
1342 1423244140 921.8879
1343 1423248046 925.6782
1344 1423251953 920.4398
1345 1423255859 924.6160
1346 1423259765 924.2488
1347 1423263671 926.0693
1348 1423267578 922.7292
1349 1423271484 926.2964
1350 1423275390 923.8054
1351 1423279296 924.7679
1352 1423283203 927.3073
1353 1423287109 927.1238
1354 1423291015 925.3115
1355 1423294921 926.2264
1356 1423298828 931.2338
1357 1423302734 931.8574
1358 1423306640 930.1348
1359 1423310546 931.8386
1360 1423314453 930.1116
1361 1423318359 926.5755
1362 1423322265 927.6843
1363 1423326171 929.0342
1364 1423330078 929.3099
1365 1423333984 931.9557
1366 1423337890 929.8871
1367 1423341796 930.2390
1368 1423345703 931.3463
1369 1423349609 930.2675
1370 1423353515 932.5269
1371 1423357421 933.5558
1372 1423361328 931.8026
1373 1423365234 931.1443
1374 1423369140 933.4321
1375 1423373046 929.7363
1376 1423376953 932.1627
1377 1423380859 934.7806
1378 1423384765 932.5973
1379 1423388671 930.9804
1380 1423392578 928.5367
1381 1423396484 930.0316
1382 1423400390 935.2161
1383 1423404296 933.9362
1384 1423408203 934.3900
1385 1423412109 928.1045
1386 1423416015 929.0981
1387 1423419921 929.6486
1388 1423423828 929.2129
1389 1423427734 931.8674
1390 1423431640 930.1851
1391 1423435546 930.8415
1392 1423439453 929.2352
1393 1423443359 928.7839
1394 1423447265 927.3367
1395 1423451171 930.2855
1396 1423455078 926.8461
1397 1423458984 927.6581
1398 1423462890 932.7541
1399 1423466796 931.2604
1400 1423470703 927.2573
1401 1423474609 929.0746
1402 1423478515 927.9193
1403 1423482421 923.5527
1404 1423486328 926.5505
1405 1423490234 929.9765
1406 1423494140 926.4063
1407 1423498046 926.7741
1408 1423501953 925.7523
1409 1423505859 927.5223
1410 1423509765 928.9713
1411 1423513671 925.3269
1412 1423517578 927.5950
1413 1423521484 924.6166
1414 1423525390 925.0770
1415 1423529296 925.7467
1416 1423533203 926.0050
1417 1423537109 928.3448
1418 1423541015 930.2386
1419 1423544921 928.7929
1420 1423548828 930.4697
1421 1423552734 924.6636
1422 1423556640 924.7371
1423 1423560546 922.0817
1424 1423564453 923.5635
1425 1423568359 926.2664
1426 1423572265 927.4171
1427 1423576171 930.1524
1428 1423580078 927.0491
1429 1423583984 926.5047
1430 1423587890 929.5600
1431 1423591796 928.8156
1432 1423595703 930.0331
1433 1423599609 926.4172
1434 1423603515 926.6481
1435 1423607421 925.3856
1436 1423611328 927.2979
1437 1423615234 931.8849
1438 1423619140 931.9650
1439 1423623046 933.3214
1440 1423626953 928.9495
1441 1423630859 930.0247
1442 1423634765 932.8915
1443 1423638671 929.7327
1444 1423642578 930.1862
1445 1423646484 931.3756
1446 1423650390 935.9863
1447 1423654296 934.7852
1448 1423658203 934.0601
1449 1423662109 936.0989
1450 1423666015 938.5412
1451 1423669921 937.2288
1452 1423673828 937.4960
1453 1423677734 937.8625
1454 1423681640 942.4163
1455 1423685546 940.1951
1456 1423689453 938.0680
1457 1423693359 935.5840
1458 1423697265 938.1450
1459 1423701171 940.8671
1460 1423705078 942.8351
1461 1423708984 940.9825
1462 1423712890 942.4609
1463 1423716796 939.5533
1464 1423720703 937.5377
1465 1423724609 945.1451
1466 1423728515 943.7690
1467 1423732421 945.8176
1468 1423736328 945.8834
1469 1423740234 947.3108
1470 1423744140 946.3253
1471 1423748046 945.7200
1472 1423751953 944.8254
1473 1423755859 946.1284
1474 1423759765 946.7604
1475 1423763671 947.0768
1476 1423767578 948.1783
1477 1423771484 951.8790
1478 1423775390 954.2299
1479 1423779296 952.2475
1480 1423783203 954.5976
1481 1423787109 950.8654
1482 1423791015 951.8726
1483 1423794921 954.0247
1484 1423798828 953.3223
1485 1423802734 954.6182
1486 1423806640 954.1500
1487 1423810546 954.2586
1488 1423814453 949.1469
1489 1423818359 952.7143
1490 1423822265 952.7205
1491 1423826171 952.8416
1492 1423830078 952.6553
1493 1423833984 953.2650
1494 1423837890 956.7331
1495 1423841796 951.4722
1496 1423845703 955.7694
1497 1423849609 952.0613
1498 1423853515 954.5300
1499 1423857421 953.7868
1500 1423861328 955.7196
1501 1423865234 953.9313
1502 1423869140 956.5662
1503 1423873046 953.1694
1504 1423876953 951.9158
1505 1423880859 951.1687
1506 1423884765 953.7343
1507 1423888671 954.6357
1508 1423892578 952.1206
1509 1423896484 956.5362
1510 1423900390 952.9994
1511 1423904296 954.5817
1512 1423908203 954.5593
1513 1423912109 955.7100
1514 1423916015 952.6031
1515 1423919921 954.7576
1516 1423923828 953.2448
1517 1423927734 951.9409
1518 1423931640 951.2337
1519 1423935546 952.1998
1520 1423939453 951.5356
1521 1423943359 953.3171
1522 1423947265 955.1105
1523 1423951171 949.8367
1524 1423955078 953.3074
1525 1423958984 952.7470
1526 1423962890 953.7671
1527 1423966796 950.1318
1528 1423970703 953.0536
1529 1423974609 950.0542
1530 1423978515 952.2609
1531 1423982421 949.0618
1532 1423986328 947.9197
1533 1423990234 949.9037
1534 1423994140 949.1786
1535 1423998046 950.7708
1536 1424001953 959.5816
1537 1424005859 954.0563
1538 1424009765 953.5879
1539 1424013671 952.4815
1540 1424017578 952.2582
1541 1424021484 951.5400
1542 1424025390 948.5021
1543 1424029296 949.0639
1544 1424033203 949.0488
1545 1424037109 949.8192
1546 1424041015 952.0854
1547 1424044921 950.7806
1548 1424048828 949.7294
1549 1424052734 953.2001
1550 1424056640 950.7380
1551 1424060546 951.0871
1552 1424064453 951.1652
1553 1424068359 946.9829
1554 1424072265 953.6546
1555 1424076171 951.0328
1556 1424080078 951.5457
1557 1424083984 954.2476
1558 1424087890 955.4134
1559 1424091796 951.9063
1560 1424095703 953.3987
1561 1424099609 949.6632
1562 1424103515 953.6440
1563 1424107421 955.0870
1564 1424111328 951.8181
1565 1424115234 954.6336
1566 1424119140 952.1093
1567 1424123046 955.6974
1568 1424126953 953.1186
1569 1424130859 957.7056
1570 1424134765 960.8582
1571 1424138671 956.4781
1572 1424142578 958.7853
1573 1424146484 960.2563
1574 1424150390 962.3878
1575 1424154296 960.4468
1576 1424158203 960.5015
1577 1424162109 963.9888
1578 1424166015 964.8029
1579 1424169921 964.9915
1580 1424173828 965.5126
1581 1424177734 964.9883
1582 1424181640 969.7285
1583 1424185546 967.3572
1584 1424189453 964.4260
1585 1424193359 967.6434
1586 1424197265 970.2263
1587 1424201171 970.2224
1588 1424205078 970.4344
1589 1424208984 970.8596
1590 1424212890 972.8876
1591 1424216796 973.4797
1592 1424220703 973.6285
1593 1424224609 976.7155
1594 1424228515 977.2343
1595 1424232421 978.4230
1596 1424236328 980.3630
1597 1424240234 980.8073
1598 1424244140 982.7092
1599 1424248046 982.3159
1600 1424251953 978.9578
1601 1424255859 978.0449
1602 1424259765 982.6616
1603 1424263671 981.7689
1604 1424267578 980.3348
1605 1424271484 985.6318
1606 1424275390 986.3033
1607 1424279296 988.3110
1608 1424283203 988.9952
1609 1424287109 988.6296
1610 1424291015 986.1315
1611 1424294921 985.9789
1612 1424298828 987.3646
1613 1424302734 986.9684
1614 1424306640 991.1789
1615 1424310546 988.0499
1616 1424314453 991.7275
1617 1424318359 989.1414
1618 1424322265 993.2298
1619 1424326171 992.0801
1620 1424330078 992.7649
1621 1424333984 989.9816
1622 1424337890 993.3865
1623 1424341796 995.1376
1624 1424345703 994.4968
1625 1424349609 994.1891
1626 1424353515 990.5455
1627 1424357421 993.5078
1628 1424361328 996.0460
1629 1424365234 997.8083
1630 1424369140 997.1569
1631 1424373046 993.2045
1632 1424376953 998.2170
1633 1424380859 995.8050
1634 1424384765 992.4739
1635 1424388671 994.4307
1636 1424392578 995.5959
1637 1424396484 997.1561
1638 1424400390 993.9764
1639 1424404296 999.9705
1640 1424408203 995.9200
1641 1424412109 994.1266
1642 1424416015 994.9365
1643 1424419921 998.2200
1644 1424423828 994.8782
1645 1424427734 997.5495
1646 1424431640 997.2012
1647 1424435546 998.0875
1648 1424439453 996.1771
1649 1424443359 994.0703
1650 1424447265 998.1166
1651 1424451171 995.3248
1652 1424455078 992.8453
1653 1424458984 994.5784
1654 1424462890 994.7661
1655 1424466796 995.2660
1656 1424470703 995.7623
1657 1424474609 998.6085
1658 1424478515 996.4553
1659 1424482421 992.0057
1660 1424486328 992.6667
1661 1424490234 989.8055
1662 1424494140 992.8945
1663 1424498046 994.3810
1664 1424501953 991.5421
1665 1424505859 994.2493
1666 1424509765 992.1804
1667 1424513671 993.4394
1668 1424517578 995.3055
1669 1424521484 990.3845
1670 1424525390 990.4171
1671 1424529296 993.9163
1672 1424533203 990.8303
1673 1424537109 991.6157
1674 1424541015 992.9171
1675 1424544921 991.2693
1676 1424548828 993.8892
1677 1424552734 986.9600
1678 1424556640 992.7950
1679 1424560546 989.2791
1680 1424564453 991.2066
1681 1424568359 985.2563
1682 1424572265 991.8220
1683 1424576171 987.6806
1684 1424580078 990.3553
1685 1424583984 991.7247
1686 1424587890 988.2743
1687 1424591796 990.0021
1688 1424595703 987.6758
1689 1424599609 987.8857
1690 1424603515 986.8762
1691 1424607421 985.9726
1692 1424611328 985.3205
1693 1424615234 988.9440
1694 1424619140 986.9800
1695 1424623046 985.4128
1696 1424626953 989.2691
1697 1424630859 989.1821
1698 1424634765 988.4894
1699 1424638671 986.6674
1700 1424642578 988.9885
1701 1424646484 983.5250
1702 1424650390 983.4448
1703 1424654296 982.6319
1704 1424658203 985.5942
1705 1424662109 986.7108
1706 1424666015 984.3201
1707 1424669921 982.9550
1708 1424673828 983.7419
1709 1424677734 982.2850
1710 1424681640 983.2234
1711 1424685546 979.3622
1712 1424689453 984.7980
1713 1424693359 981.6353
1714 1424697265 983.0587
1715 1424701171 980.9352
1716 1424705078 983.5985
1717 1424708984 977.7944
1718 1424712890 981.0334
1719 1424716796 975.2688
1720 1424720703 975.7209
1721 1424724609 975.7869
1722 1424728515 971.7336
1723 1424732421 977.0105
1724 1424736328 970.6693
1725 1424740234 971.9625
1726 1424744140 973.2391
1727 1424748046 975.3715
1728 1424751953 972.1491
1729 1424755859 967.9018
1730 1424759765 968.3071
1731 1424763671 963.4988
1732 1424767578 967.2814
1733 1424771484 964.4396
1734 1424775390 963.4877
1735 1424779296 960.3715
1736 1424783203 962.0030
1737 1424787109 955.8389
1738 1424791015 962.2490
1739 1424794921 960.2017
1740 1424798828 954.3033
1741 1424802734 956.5327
1742 1424806640 951.3515
1743 1424810546 949.4111
1744 1424814453 950.0204
1745 1424818359 947.3621
1746 1424822265 946.6689
1747 1424826171 948.0256
1748 1424830078 944.6993
1749 1424833984 939.7823
1750 1424837890 943.5267
1751 1424841796 942.8711
1752 1424845703 938.7239
1753 1424849609 935.9766
1754 1424853515 936.4902
1755 1424857421 935.1403
1756 1424861328 933.8395
1757 1424865234 927.0853
1758 1424869140 929.8470
1759 1424873046 933.8922
1760 1424876953 925.5583
1761 1424880859 924.8779
1762 1424884765 928.9894
1763 1424888671 929.8054
1764 1424892578 923.1240
1765 1424896484 924.9107
1766 1424900390 918.2820
1767 1424904296 918.4852
1768 1424908203 922.8311
1769 1424912109 920.5567
1770 1424916015 916.7233
1771 1424919921 914.3088
1772 1424923828 915.0817
1773 1424927734 914.3710
1774 1424931640 914.6360
1775 1424935546 918.0405
1776 1424939453 912.8982
1777 1424943359 911.0625
1778 1424947265 909.2656
1779 1424951171 908.6678
1780 1424955078 907.0907
1781 1424958984 907.9122
1782 1424962890 908.1972
1783 1424966796 910.1304
1784 1424970703 910.6539
1785 1424974609 905.0447
1786 1424978515 905.4329
1787 1424982421 907.7228
1788 1424986328 911.3027
1789 1424990234 911.1731
1790 1424994140 910.6435
1791 1424998046 913.6493
1792 1425001953 920.9110
1793 1425005859 961.6077
1794 1425009765 962.3566
1795 1425013671 914.0491
1796 1425017578 910.3438
1797 1425021484 916.0248
1798 1425025390 918.0908
1799 1425029296 919.3336
1800 1425033203 917.4364
1801 1425037109 921.1027
1802 1425041015 922.6258
1803 1425044921 921.2867
1804 1425048828 925.5520
1805 1425052734 928.8344
1806 1425056640 934.0014
1807 1425060546 928.2907
1808 1425064453 934.3981
1809 1425068359 935.6060
1810 1425072265 938.7518
1811 1425076171 941.5390
1812 1425080078 941.1619
1813 1425083984 943.9257
1814 1425087890 946.8948
1815 1425091796 944.5199
1816 1425095703 953.9369
1817 1425099609 954.7366
1818 1425103515 956.3607
1819 1425107421 957.3104
1820 1425111328 960.2989
1821 1425115234 962.6534
1822 1425119140 968.1342
1823 1425123046 971.8190
1824 1425126953 971.3943
1825 1425130859 974.2958
1826 1425134765 977.0811
1827 1425138671 983.4259
1828 1425142578 983.6092
1829 1425146484 986.8829
1830 1425150390 990.2233
1831 1425154296 992.0203
1832 1425158203 999.0043
1833 1425162109 1004.3998
1834 1425166015 1001.9716
1835 1425169921 1005.3465
1836 1425173828 1003.9402
1837 1425177734 1003.7186
1838 1425181640 1013.3054
1839 1425185546 1014.4359
1840 1425189453 1017.6988
1841 1425193359 1021.0329
1842 1425197265 1020.7387
1843 1425201171 1026.7435
1844 1425205078 1021.3298
1845 1425208984 1026.1692
1846 1425212890 1027.2327
1847 1425216796 1029.3033
1848 1425220703 1029.2214
1849 1425224609 1030.7319
1850 1425228515 1032.6095
1851 1425232421 1033.5439
1852 1425236328 1037.0175
1853 1425240234 1032.2124
1854 1425244140 1035.2494
1855 1425248046 1031.0483
1856 1425251953 1030.6641
1857 1425255859 1033.5599
1858 1425259765 1030.1331
1859 1425263671 1026.9899
1860 1425267578 1026.3096
1861 1425271484 1024.1274
1862 1425275390 1022.2826
1863 1425279296 1026.2252
1864 1425283203 1014.1997
1865 1425287109 1012.1584
1866 1425291015 1011.1592
1867 1425294921 1005.2934
1868 1425298828 1001.6054
1869 1425302734 997.0401
1870 1425306640 997.0620
1871 1425310546 987.0286
1872 1425314453 981.0085
1873 1425318359 970.3343
1874 1425322265 965.3262
1875 1425326171 958.7087
1876 1425330078 952.3922
1877 1425333984 946.6595
1878 1425337890 940.0528
1879 1425341796 929.3657
1880 1425345703 922.6597
1881 1425349609 912.1718
1882 1425353515 903.4416
1883 1425357421 896.0740
1884 1425361328 886.4395
1885 1425365234 874.1241
1886 1425369140 856.0029
1887 1425373046 850.4028
1888 1425376953 839.4903
1889 1425380859 827.6711
1890 1425384765 813.3690
1891 1425388671 803.2540
1892 1425392578 786.7220
1893 1425396484 777.4780
1894 1425400390 766.0405
1895 1425404296 751.8276
1896 1425408203 736.3311
1897 1425412109 719.1110
1898 1425416015 707.8268
1899 1425419921 692.2057
1900 1425423828 680.9125
1901 1425427734 668.1478
1902 1425431640 648.1360
1903 1425435546 636.7275
1904 1425439453 622.0766
1905 1425443359 609.7296
1906 1425447265 592.4342
1907 1425451171 580.6016
1908 1425455078 562.1071
1909 1425458984 546.4691
1910 1425462890 531.5877
1911 1425466796 515.0676
1912 1425470703 500.6643
1913 1425474609 486.4058
1914 1425478515 470.9671
1915 1425482421 455.0169
1916 1425486328 440.0291
1917 1425490234 425.5939
1918 1425494140 411.0545
1919 1425498046 397.6903
1920 1425501953 381.8341
1921 1425505859 368.8764
1922 1425509765 355.5295
1923 1425513671 341.3489
1924 1425517578 326.4036
1925 1425521484 314.4008
1926 1425525390 302.0116
1927 1425529296 288.9208
1928 1425533203 275.8535
1929 1425537109 263.6126
1930 1425541015 251.7348
1931 1425544921 239.0749
1932 1425548828 228.9510
1933 1425552734 217.0686
1934 1425556640 206.5303
1935 1425560546 195.4177
1936 1425564453 185.4358
1937 1425568359 176.1155
1938 1425572265 166.9771
1939 1425576171 157.3211
1940 1425580078 148.8403
1941 1425583984 139.9338
1942 1425587890 131.6103
1943 1425591796 123.8802
1944 1425595703 115.7156
1945 1425599609 108.8596
1946 1425603515 101.7735
1947 1425607421 94.8549
1948 1425611328 88.3257
1949 1425615234 82.4820
1950 1425619140 76.8316
1951 1425623046 71.5103
1952 1425626953 66.2650
1953 1425630859 61.2157
1954 1425634765 56.4683
1955 1425638671 51.7867
1956 1425642578 47.8133
1957 1425646484 43.9875
1958 1425650390 40.2160
1959 1425654296 36.9750
1960 1425658203 33.7909
1961 1425662109 30.5448
1962 1425666015 27.8106
1963 1425669921 25.2183
1964 1425673828 22.7367
1965 1425677734 20.5592
1966 1425681640 18.4532
1967 1425685546 16.5121
1968 1425689453 14.7596
1969 1425693359 13.1179
1970 1425697265 11.6288
1971 1425701171 10.2601
1972 1425705078 9.0820
1973 1425708984 7.9596
1974 1425712890 6.9323
1975 1425716796 6.0110
1976 1425720703 5.1859
1977 1425724609 4.4348
1978 1425728515 3.7936
1979 1425732421 3.2070
1980 1425736328 2.6923
1981 1425740234 2.2354
1982 1425744140 1.8443
1983 1425748046 1.5080
1984 1425751953 1.2106
1985 1425755859 0.9568
1986 1425759765 0.7453
1987 1425763671 0.5678
1988 1425767578 0.4243
1989 1425771484 0.3058
1990 1425775390 0.2126
1991 1425779296 0.1432
1992 1425783203 0.0923
1993 1425787109 0.0582
1994 1425791015 0.0388
1995 1425794921 0.0318
1996 1425798828 0.0355
1997 1425802734 0.0482
1998 1425806640 0.0680
1999 1425810546 0.0942
2000 1425814453 0.1246
2001 1425818359 0.1583
2002 1425822265 0.1953
2003 1425826171 0.2340
2004 1425830078 0.2733
2005 1425833984 0.3128
2006 1425837890 0.3523
2007 1425841796 0.3932
2008 1425845703 0.4304
2009 1425849609 0.4670
2010 1425853515 0.5026
2011 1425857421 0.5364
2012 1425861328 0.5688
2013 1425865234 0.5985
2014 1425869140 0.6256
2015 1425873046 0.6535
2016 1425876953 0.6724
2017 1425880859 0.6930
2018 1425884765 0.7116
2019 1425888671 0.7297
2020 1425892578 0.7447
2021 1425896484 0.7604
2022 1425900390 0.7746
2023 1425904296 0.7818
2024 1425908203 0.7878
2025 1425912109 0.7953
2026 1425916015 0.8024
2027 1425919921 0.8086
2028 1425923828 0.8144
2029 1425927734 0.8174
2030 1425931640 0.8206
2031 1425935546 0.8200
2032 1425939453 0.8221
2033 1425943359 0.8231
2034 1425947265 0.8210
2035 1425951171 0.8196
2036 1425955078 0.8217
2037 1425958984 0.8189
2038 1425962890 0.8226
2039 1425966796 0.8205
2040 1425970703 0.8191
2041 1425974609 0.8160
2042 1425978515 0.8172
2043 1425982421 0.8169
2044 1425986328 0.8162
2045 1425990234 0.8189
2046 1425994140 0.8185
2047 1425998046 0.8168
