# File: 20-11-28T180814.hot
# NOTEA     = RSP1A+GPIOLabs Pi #1 On Horn
# NOTEB     = Sdrplay 8 MHz Test
# OBSERVER  = Science Aficionado
# DEVICE    = SDRPlay RSP1A
# DATADIR   = ../data/
# SITE      = RSP1A+GPIOLabs Pi #1 On Horn
# CITY      = Green Bank
# REGION    = West Virginia
# COUNTRY   = US
# TELTYPE   = Bubble Wrap  Horn
# FRAME     = TOPO
# GAIN1     = 0.0
# GAIN2     = 12.0
# GAIN3     = 12.0
# GAIN4     = 0.0
# Count     = 360000
# CenterFreq= 1422000000.0
# Bandwidth = 8000000.0
# Duration  = 157.285401
# DeltaX    = 5859.375
# TSYS      = 200.0
# TRX       = 100.0
# TRMS      = 2.0
# TINT      = 1.0
# KPERC     = 100.0
# GAINFACT  = 1.0
# BUNIT     = Counts
# NCHAN     = 2048
# NSPEC     = 1
# NTIME     = 0
# NSAMPLES  = 0
# EPEAK     = 4.10875183718
# ERMS      = 0.995973393526
# EMJD      = 58568.808999981004 
# REFCHAN   = 1024.0
# REFSAMPL  = 256.0
# NAVE      = 600
# NMEDIAN   = 1024
# Fft_rate  = 5000
# UTC       = 2020-11-28 18:08:14.550284
# SECONDS   =       0.0000000000 
# LST       = 17:21:16.300
# AZ        = 180.0
# EL        = -40.0
# TELLON    = -79:50:22.920
# TELLAT    = +38:25:59.160
# RA        = 05:52:13.030
# DEC       = -88:27:30.000
# GALLON    = 301:15:04.90
# GALLAT    = -27:30:43.90
# ALT_SUN   = +28:27:09.4
# AZ_SUN    = +196:04:47.0
# ETAA      = 0.8
# ETAB      = 0.99
# POLANGLE  = 0.0
# TELSIZEAM = 1.0
# TELSIZEBM = 1.0
# AST_VERS  = 05.01
0000 1418001953 0.8397
0001 1418005859 0.8404
0002 1418009765 0.8422
0003 1418013671 0.8422
0004 1418017578 0.8434
0005 1418021484 0.8483
0006 1418025390 0.8478
0007 1418029296 0.8525
0008 1418033203 0.8519
0009 1418037109 0.8571
0010 1418041015 0.8570
0011 1418044921 0.8624
0012 1418048828 0.8657
0013 1418052734 0.8643
0014 1418056640 0.8673
0015 1418060546 0.8695
0016 1418064453 0.8692
0017 1418068359 0.8698
0018 1418072265 0.8711
0019 1418076171 0.8685
0020 1418080078 0.8673
0021 1418083984 0.8641
0022 1418087890 0.8589
0023 1418091796 0.8541
0024 1418095703 0.8435
0025 1418099609 0.8378
0026 1418103515 0.8292
0027 1418107421 0.8167
0028 1418111328 0.8050
0029 1418115234 0.7874
0030 1418119140 0.7680
0031 1418123046 0.7457
0032 1418126953 0.7243
0033 1418130859 0.7019
0034 1418134765 0.6727
0035 1418138671 0.6459
0036 1418142578 0.6135
0037 1418146484 0.5791
0038 1418150390 0.5421
0039 1418154296 0.5048
0040 1418158203 0.4637
0041 1418162109 0.4244
0042 1418166015 0.3792
0043 1418169921 0.3377
0044 1418173828 0.2953
0045 1418177734 0.2528
0046 1418181640 0.2098
0047 1418185546 0.1709
0048 1418189453 0.1336
0049 1418193359 0.1004
0050 1418197265 0.0720
0051 1418201171 0.0506
0052 1418205078 0.0369
0053 1418208984 0.0329
0054 1418212890 0.0405
0055 1418216796 0.0614
0056 1418220703 0.0981
0057 1418224609 0.1537
0058 1418228515 0.2303
0059 1418232421 0.3303
0060 1418236328 0.4577
0061 1418240234 0.6184
0062 1418244140 0.8078
0063 1418248046 1.0380
0064 1418251953 1.3136
0065 1418255859 1.6335
0066 1418259765 2.0125
0067 1418263671 2.4410
0068 1418267578 2.9232
0069 1418271484 3.4913
0070 1418275390 4.1335
0071 1418279296 4.8336
0072 1418283203 5.6443
0073 1418287109 6.5252
0074 1418291015 7.5351
0075 1418294921 8.6111
0076 1418298828 9.8714
0077 1418302734 11.2431
0078 1418306640 12.6623
0079 1418310546 14.3105
0080 1418314453 16.0550
0081 1418318359 17.9502
0082 1418322265 20.1620
0083 1418326171 22.3204
0084 1418330078 24.7780
0085 1418333984 27.4769
0086 1418337890 30.3136
0087 1418341796 33.3563
0088 1418345703 36.6557
0089 1418349609 40.1583
0090 1418353515 43.9375
0091 1418357421 47.9636
0092 1418361328 52.2653
0093 1418365234 56.7251
0094 1418369140 61.3360
0095 1418373046 66.8772
0096 1418376953 71.9545
0097 1418380859 77.6034
0098 1418384765 83.8129
0099 1418388671 90.2435
0100 1418392578 96.9809
0101 1418396484 103.9988
0102 1418400390 110.7923
0103 1418404296 118.4966
0104 1418408203 126.6500
0105 1418412109 134.8950
0106 1418416015 143.9991
0107 1418419921 152.4734
0108 1418423828 162.0853
0109 1418427734 171.5350
0110 1418431640 181.5959
0111 1418435546 191.9268
0112 1418439453 202.2821
0113 1418443359 213.9955
0114 1418447265 226.3228
0115 1418451171 237.2403
0116 1418455078 250.0697
0117 1418458984 261.4345
0118 1418462890 275.4470
0119 1418466796 287.9726
0120 1418470703 301.1104
0121 1418474609 315.4880
0122 1418478515 328.1970
0123 1418482421 343.5819
0124 1418486328 358.4738
0125 1418490234 372.1249
0126 1418494140 387.6028
0127 1418498046 401.8272
0128 1418501953 416.8228
0129 1418505859 434.3593
0130 1418509765 450.7314
0131 1418513671 467.0311
0132 1418517578 481.8253
0133 1418521484 498.1525
0134 1418525390 517.1006
0135 1418529296 531.6990
0136 1418533203 547.1309
0137 1418537109 564.9824
0138 1418541015 578.1321
0139 1418544921 597.3911
0140 1418548828 615.4331
0141 1418552734 629.8561
0142 1418556640 647.6815
0143 1418560546 664.6108
0144 1418564453 681.1394
0145 1418568359 698.6147
0146 1418572265 714.9339
0147 1418576171 728.1979
0148 1418580078 744.8018
0149 1418583984 760.9780
0150 1418587890 777.2314
0151 1418591796 792.8134
0152 1418595703 805.0384
0153 1418599609 821.7787
0154 1418603515 838.3434
0155 1418607421 852.5647
0156 1418611328 865.9781
0157 1418615234 882.7952
0158 1418619140 892.3087
0159 1418623046 905.1158
0160 1418626953 918.6994
0161 1418630859 930.7635
0162 1418634765 945.5502
0163 1418638671 960.6780
0164 1418642578 970.6442
0165 1418646484 976.9067
0166 1418650390 990.2663
0167 1418654296 999.5566
0168 1418658203 1010.3845
0169 1418662109 1017.6220
0170 1418666015 1028.8057
0171 1418669921 1039.6763
0172 1418673828 1041.4652
0173 1418677734 1057.5023
0174 1418681640 1061.1478
0175 1418685546 1062.9438
0176 1418689453 1073.3273
0177 1418693359 1078.4058
0178 1418697265 1087.3641
0179 1418701171 1092.5005
0180 1418705078 1101.4146
0181 1418708984 1101.2958
0182 1418712890 1108.9683
0183 1418716796 1105.8473
0184 1418720703 1113.5309
0185 1418724609 1121.3540
0186 1418728515 1117.8236
0187 1418732421 1122.5199
0188 1418736328 1124.8188
0189 1418740234 1129.7926
0190 1418744140 1128.3202
0191 1418748046 1135.9508
0192 1418751953 1127.9456
0193 1418755859 1134.2435
0194 1418759765 1132.7903
0195 1418763671 1133.5637
0196 1418767578 1130.4384
0197 1418771484 1134.2661
0198 1418775390 1132.6139
0199 1418779296 1129.7894
0200 1418783203 1131.8201
0201 1418787109 1130.4589
0202 1418791015 1124.4895
0203 1418794921 1126.7335
0204 1418798828 1128.5825
0205 1418802734 1123.5007
0206 1418806640 1117.2334
0207 1418810546 1116.9309
0208 1418814453 1118.2944
0209 1418818359 1115.3556
0210 1418822265 1106.8456
0211 1418826171 1107.1014
0212 1418830078 1105.8994
0213 1418833984 1103.9655
0214 1418837890 1102.1754
0215 1418841796 1091.4268
0216 1418845703 1090.9268
0217 1418849609 1087.0922
0218 1418853515 1084.8496
0219 1418857421 1084.9259
0220 1418861328 1080.8301
0221 1418865234 1073.5886
0222 1418869140 1073.2791
0223 1418873046 1075.0618
0224 1418876953 1071.3976
0225 1418880859 1063.4594
0226 1418884765 1062.9014
0227 1418888671 1058.7560
0228 1418892578 1054.7928
0229 1418896484 1048.9159
0230 1418900390 1049.2521
0231 1418904296 1043.9363
0232 1418908203 1043.4111
0233 1418912109 1040.0276
0234 1418916015 1038.2391
0235 1418919921 1033.8866
0236 1418923828 1032.2321
0237 1418927734 1030.3695
0238 1418931640 1027.6302
0239 1418935546 1026.0596
0240 1418939453 1024.7766
0241 1418943359 1020.5496
0242 1418947265 1018.8916
0243 1418951171 1014.3466
0244 1418955078 1015.1221
0245 1418958984 1016.1425
0246 1418962890 1010.0225
0247 1418966796 1007.4854
0248 1418970703 1009.8130
0249 1418974609 1003.5283
0250 1418978515 1002.8244
0251 1418982421 1003.6940
0252 1418986328 998.8876
0253 1418990234 999.6761
0254 1418994140 998.1385
0255 1418998046 996.7880
0256 1419001953 998.3011
0257 1419005859 998.9086
0258 1419009765 995.5765
0259 1419013671 1000.4706
0260 1419017578 998.3550
0261 1419021484 995.9758
0262 1419025390 996.0541
0263 1419029296 995.4197
0264 1419033203 995.6858
0265 1419037109 992.3432
0266 1419041015 991.9687
0267 1419044921 995.5279
0268 1419048828 993.2985
0269 1419052734 991.2463
0270 1419056640 992.8159
0271 1419060546 995.0271
0272 1419064453 998.4059
0273 1419068359 998.5692
0274 1419072265 997.0583
0275 1419076171 1001.3422
0276 1419080078 998.8571
0277 1419083984 1002.5045
0278 1419087890 1002.3011
0279 1419091796 1002.5833
0280 1419095703 1003.5202
0281 1419099609 1002.8765
0282 1419103515 1010.2277
0283 1419107421 1005.8873
0284 1419111328 1010.5290
0285 1419115234 1006.4850
0286 1419119140 1010.4123
0287 1419123046 1014.3240
0288 1419126953 1015.3741
0289 1419130859 1015.0829
0290 1419134765 1019.9364
0291 1419138671 1020.9266
0292 1419142578 1019.1657
0293 1419146484 1027.5334
0294 1419150390 1025.6167
0295 1419154296 1022.9705
0296 1419158203 1026.0797
0297 1419162109 1026.7136
0298 1419166015 1026.3650
0299 1419169921 1031.8871
0300 1419173828 1029.8546
0301 1419177734 1036.4321
0302 1419181640 1040.7068
0303 1419185546 1038.8983
0304 1419189453 1035.0187
0305 1419193359 1037.8848
0306 1419197265 1036.5210
0307 1419201171 1037.3824
0308 1419205078 1041.3365
0309 1419208984 1044.7312
0310 1419212890 1041.2805
0311 1419216796 1048.7656
0312 1419220703 1048.4377
0313 1419224609 1048.4518
0314 1419228515 1045.8831
0315 1419232421 1049.2952
0316 1419236328 1054.6725
0317 1419240234 1056.1847
0318 1419244140 1055.0118
0319 1419248046 1057.1036
0320 1419251953 1059.7566
0321 1419255859 1054.4758
0322 1419259765 1058.5021
0323 1419263671 1058.2131
0324 1419267578 1059.2261
0325 1419271484 1058.9980
0326 1419275390 1059.2734
0327 1419279296 1062.0483
0328 1419283203 1063.3550
0329 1419287109 1064.7620
0330 1419291015 1065.1727
0331 1419294921 1061.7542
0332 1419298828 1067.4435
0333 1419302734 1068.2994
0334 1419306640 1067.2941
0335 1419310546 1066.6616
0336 1419314453 1063.1948
0337 1419318359 1064.8335
0338 1419322265 1067.6591
0339 1419326171 1065.4794
0340 1419330078 1068.9172
0341 1419333984 1069.4337
0342 1419337890 1072.6917
0343 1419341796 1070.8945
0344 1419345703 1070.6031
0345 1419349609 1070.8258
0346 1419353515 1068.0781
0347 1419357421 1070.4291
0348 1419361328 1069.0239
0349 1419365234 1072.0492
0350 1419369140 1069.7832
0351 1419373046 1075.5443
0352 1419376953 1071.9534
0353 1419380859 1068.7750
0354 1419384765 1073.5645
0355 1419388671 1074.4503
0356 1419392578 1072.5918
0357 1419396484 1072.7961
0358 1419400390 1075.4417
0359 1419404296 1075.6877
0360 1419408203 1072.6423
0361 1419412109 1072.9274
0362 1419416015 1073.9847
0363 1419419921 1079.0876
0364 1419423828 1069.5625
0365 1419427734 1074.0436
0366 1419431640 1073.6078
0367 1419435546 1076.7787
0368 1419439453 1073.3970
0369 1419443359 1073.3582
0370 1419447265 1073.5563
0371 1419451171 1074.2795
0372 1419455078 1073.3656
0373 1419458984 1075.3568
0374 1419462890 1073.7363
0375 1419466796 1075.5753
0376 1419470703 1079.1329
0377 1419474609 1078.1782
0378 1419478515 1073.0261
0379 1419482421 1073.9000
0380 1419486328 1068.6978
0381 1419490234 1074.2491
0382 1419494140 1076.0363
0383 1419498046 1079.7478
0384 1419501953 1075.3605
0385 1419505859 1080.5133
0386 1419509765 1079.4103
0387 1419513671 1080.1758
0388 1419517578 1076.4612
0389 1419521484 1073.3994
0390 1419525390 1080.9730
0391 1419529296 1080.9257
0392 1419533203 1077.2344
0393 1419537109 1079.3677
0394 1419541015 1078.6299
0395 1419544921 1074.9968
0396 1419548828 1077.0184
0397 1419552734 1080.4559
0398 1419556640 1075.4663
0399 1419560546 1077.0801
0400 1419564453 1080.4177
0401 1419568359 1076.3073
0402 1419572265 1078.1725
0403 1419576171 1078.1431
0404 1419580078 1081.8046
0405 1419583984 1079.2566
0406 1419587890 1077.7250
0407 1419591796 1076.9384
0408 1419595703 1079.4238
0409 1419599609 1074.6287
0410 1419603515 1077.8073
0411 1419607421 1076.3788
0412 1419611328 1078.0311
0413 1419615234 1081.5209
0414 1419619140 1076.0044
0415 1419623046 1077.1962
0416 1419626953 1076.2791
0417 1419630859 1078.0259
0418 1419634765 1076.1191
0419 1419638671 1078.0839
0420 1419642578 1074.2183
0421 1419646484 1074.1053
0422 1419650390 1079.8639
0423 1419654296 1070.8009
0424 1419658203 1074.2230
0425 1419662109 1074.7106
0426 1419666015 1070.4934
0427 1419669921 1069.2336
0428 1419673828 1068.0819
0429 1419677734 1071.3669
0430 1419681640 1073.8381
0431 1419685546 1069.4813
0432 1419689453 1066.2236
0433 1419693359 1070.5179
0434 1419697265 1064.0201
0435 1419701171 1068.7493
0436 1419705078 1064.7017
0437 1419708984 1066.9180
0438 1419712890 1064.6897
0439 1419716796 1064.1060
0440 1419720703 1061.4430
0441 1419724609 1059.7156
0442 1419728515 1063.1776
0443 1419732421 1058.1500
0444 1419736328 1059.8341
0445 1419740234 1058.4604
0446 1419744140 1055.6855
0447 1419748046 1056.8840
0448 1419751953 1058.5674
0449 1419755859 1055.0660
0450 1419759765 1054.1758
0451 1419763671 1054.1543
0452 1419767578 1049.3149
0453 1419771484 1050.8085
0454 1419775390 1051.8975
0455 1419779296 1049.0344
0456 1419783203 1045.3793
0457 1419787109 1047.7170
0458 1419791015 1045.7828
0459 1419794921 1041.6656
0460 1419798828 1045.1171
0461 1419802734 1040.0271
0462 1419806640 1041.1449
0463 1419810546 1042.8531
0464 1419814453 1041.5668
0465 1419818359 1043.8414
0466 1419822265 1039.9899
0467 1419826171 1036.6475
0468 1419830078 1039.6633
0469 1419833984 1036.8315
0470 1419837890 1033.1134
0471 1419841796 1031.0990
0472 1419845703 1036.9110
0473 1419849609 1031.7449
0474 1419853515 1031.9083
0475 1419857421 1033.3707
0476 1419861328 1032.0513
0477 1419865234 1030.6154
0478 1419869140 1030.2141
0479 1419873046 1026.1316
0480 1419876953 1023.9854
0481 1419880859 1021.4802
0482 1419884765 1025.1888
0483 1419888671 1021.7086
0484 1419892578 1024.5491
0485 1419896484 1025.3101
0486 1419900390 1022.4026
0487 1419904296 1021.3639
0488 1419908203 1022.9975
0489 1419912109 1021.0765
0490 1419916015 1023.9052
0491 1419919921 1017.7568
0492 1419923828 1023.1577
0493 1419927734 1019.1189
0494 1419931640 1016.8477
0495 1419935546 1020.8702
0496 1419939453 1018.9512
0497 1419943359 1020.9186
0498 1419947265 1020.8275
0499 1419951171 1018.0266
0500 1419955078 1013.6006
0501 1419958984 1016.7271
0502 1419962890 1016.0750
0503 1419966796 1016.5698
0504 1419970703 1017.7205
0505 1419974609 1016.2389
0506 1419978515 1016.5220
0507 1419982421 1013.4824
0508 1419986328 1017.5629
0509 1419990234 1015.5837
0510 1419994140 1016.2678
0511 1419998046 1016.4906
0512 1420001953 1017.3617
0513 1420005859 1015.0049
0514 1420009765 1013.2365
0515 1420013671 1016.8660
0516 1420017578 1017.7869
0517 1420021484 1017.8695
0518 1420025390 1014.0842
0519 1420029296 1015.5047
0520 1420033203 1014.3837
0521 1420037109 1016.7927
0522 1420041015 1016.5486
0523 1420044921 1016.4019
0524 1420048828 1015.9036
0525 1420052734 1021.0078
0526 1420056640 1018.5875
0527 1420060546 1019.0084
0528 1420064453 1018.7078
0529 1420068359 1016.7471
0530 1420072265 1017.4089
0531 1420076171 1016.4885
0532 1420080078 1016.0464
0533 1420083984 1020.9827
0534 1420087890 1014.9488
0535 1420091796 1018.9912
0536 1420095703 1020.5663
0537 1420099609 1019.4464
0538 1420103515 1018.6766
0539 1420107421 1021.8299
0540 1420111328 1017.4433
0541 1420115234 1019.3348
0542 1420119140 1015.0461
0543 1420123046 1022.9927
0544 1420126953 1016.4238
0545 1420130859 1023.1831
0546 1420134765 1021.4312
0547 1420138671 1018.1720
0548 1420142578 1019.5724
0549 1420146484 1020.8452
0550 1420150390 1017.9109
0551 1420154296 1014.8154
0552 1420158203 1020.2128
0553 1420162109 1019.6671
0554 1420166015 1022.4459
0555 1420169921 1022.0185
0556 1420173828 1015.8581
0557 1420177734 1016.1063
0558 1420181640 1020.9569
0559 1420185546 1018.3528
0560 1420189453 1016.4141
0561 1420193359 1014.8514
0562 1420197265 1013.5671
0563 1420201171 1014.0953
0564 1420205078 1017.8280
0565 1420208984 1014.3982
0566 1420212890 1015.9506
0567 1420216796 1016.9333
0568 1420220703 1010.5192
0569 1420224609 1015.0749
0570 1420228515 1014.7405
0571 1420232421 1014.3214
0572 1420236328 1014.8595
0573 1420240234 1007.8892
0574 1420244140 1012.6689
0575 1420248046 1012.3809
0576 1420251953 1011.6837
0577 1420255859 1013.0073
0578 1420259765 1008.0530
0579 1420263671 1008.9321
0580 1420267578 1009.6326
0581 1420271484 1006.7663
0582 1420275390 1010.0672
0583 1420279296 1006.7556
0584 1420283203 1005.5710
0585 1420287109 1004.9622
0586 1420291015 1004.4143
0587 1420294921 1008.3857
0588 1420298828 1003.4742
0589 1420302734 1004.4031
0590 1420306640 1007.8423
0591 1420310546 1006.0988
0592 1420314453 1006.7322
0593 1420318359 1000.9926
0594 1420322265 1003.5654
0595 1420326171 1003.9839
0596 1420330078 994.0934
0597 1420333984 996.4518
0598 1420337890 998.2402
0599 1420341796 997.7394
0600 1420345703 1003.4562
0601 1420349609 998.7280
0602 1420353515 999.5333
0603 1420357421 999.4446
0604 1420361328 1000.4853
0605 1420365234 997.8118
0606 1420369140 995.0518
0607 1420373046 997.9767
0608 1420376953 992.1820
0609 1420380859 994.9603
0610 1420384765 991.5191
0611 1420388671 994.6687
0612 1420392578 992.2517
0613 1420396484 990.9783
0614 1420400390 989.6572
0615 1420404296 990.3126
0616 1420408203 987.3787
0617 1420412109 987.3515
0618 1420416015 983.6883
0619 1420419921 990.9792
0620 1420423828 984.8802
0621 1420427734 984.1851
0622 1420431640 985.6573
0623 1420435546 985.3549
0624 1420439453 985.0833
0625 1420443359 987.4793
0626 1420447265 987.1989
0627 1420451171 984.6821
0628 1420455078 981.6594
0629 1420458984 982.7485
0630 1420462890 982.9802
0631 1420466796 982.1313
0632 1420470703 987.5418
0633 1420474609 981.6086
0634 1420478515 982.0226
0635 1420482421 981.6314
0636 1420486328 982.1168
0637 1420490234 980.7963
0638 1420494140 982.6063
0639 1420498046 988.2676
0640 1420501953 984.6183
0641 1420505859 983.2838
0642 1420509765 979.9715
0643 1420513671 980.5735
0644 1420517578 983.1104
0645 1420521484 984.8879
0646 1420525390 979.6813
0647 1420529296 982.1987
0648 1420533203 983.5302
0649 1420537109 983.4982
0650 1420541015 981.6066
0651 1420544921 985.7217
0652 1420548828 985.6740
0653 1420552734 985.6034
0654 1420556640 985.3831
0655 1420560546 984.9858
0656 1420564453 984.9755
0657 1420568359 984.9470
0658 1420572265 982.0015
0659 1420576171 983.1776
0660 1420580078 983.5948
0661 1420583984 982.6405
0662 1420587890 983.2270
0663 1420591796 982.7933
0664 1420595703 986.4381
0665 1420599609 983.0325
0666 1420603515 985.6603
0667 1420607421 986.1119
0668 1420611328 978.6024
0669 1420615234 982.5595
0670 1420619140 982.0765
0671 1420623046 984.7364
0672 1420626953 982.1980
0673 1420630859 987.1353
0674 1420634765 988.2410
0675 1420638671 986.5460
0676 1420642578 981.5266
0677 1420646484 979.8737
0678 1420650390 982.9285
0679 1420654296 983.1979
0680 1420658203 982.2134
0681 1420662109 985.0768
0682 1420666015 981.1055
0683 1420669921 980.8151
0684 1420673828 979.5898
0685 1420677734 980.9117
0686 1420681640 978.7487
0687 1420685546 980.3123
0688 1420689453 982.7181
0689 1420693359 982.3589
0690 1420697265 978.4395
0691 1420701171 979.4930
0692 1420705078 978.3973
0693 1420708984 976.5878
0694 1420712890 978.7258
0695 1420716796 977.5295
0696 1420720703 981.4087
0697 1420724609 980.9645
0698 1420728515 975.9928
0699 1420732421 974.3547
0700 1420736328 974.9200
0701 1420740234 975.6997
0702 1420744140 977.6678
0703 1420748046 972.3127
0704 1420751953 969.6532
0705 1420755859 971.4753
0706 1420759765 971.4399
0707 1420763671 970.2584
0708 1420767578 969.9296
0709 1420771484 972.8788
0710 1420775390 971.6424
0711 1420779296 973.5265
0712 1420783203 968.9837
0713 1420787109 969.3220
0714 1420791015 967.3494
0715 1420794921 966.2174
0716 1420798828 968.0129
0717 1420802734 968.0016
0718 1420806640 963.6784
0719 1420810546 966.2100
0720 1420814453 970.1206
0721 1420818359 967.5394
0722 1420822265 964.2068
0723 1420826171 962.8265
0724 1420830078 965.6412
0725 1420833984 964.9047
0726 1420837890 962.5405
0727 1420841796 961.9553
0728 1420845703 963.7551
0729 1420849609 963.8862
0730 1420853515 963.1080
0731 1420857421 962.8549
0732 1420861328 964.1836
0733 1420865234 961.0270
0734 1420869140 961.6041
0735 1420873046 960.9792
0736 1420876953 963.4606
0737 1420880859 961.5756
0738 1420884765 961.7361
0739 1420888671 958.2341
0740 1420892578 963.0550
0741 1420896484 964.0395
0742 1420900390 960.2444
0743 1420904296 962.9633
0744 1420908203 964.7318
0745 1420912109 963.7925
0746 1420916015 963.8461
0747 1420919921 967.0980
0748 1420923828 966.5771
0749 1420927734 966.8271
0750 1420931640 965.9970
0751 1420935546 966.7980
0752 1420939453 966.8547
0753 1420943359 967.1004
0754 1420947265 968.9248
0755 1420951171 969.3863
0756 1420955078 969.1520
0757 1420958984 971.7805
0758 1420962890 972.6224
0759 1420966796 971.0801
0760 1420970703 972.2277
0761 1420974609 971.2144
0762 1420978515 973.3586
0763 1420982421 975.8294
0764 1420986328 975.5969
0765 1420990234 976.7960
0766 1420994140 980.4070
0767 1420998046 976.1651
0768 1421001953 976.6806
0769 1421005859 979.5991
0770 1421009765 982.3117
0771 1421013671 986.5226
0772 1421017578 982.4629
0773 1421021484 984.1207
0774 1421025390 985.4396
0775 1421029296 984.3706
0776 1421033203 989.1883
0777 1421037109 990.2112
0778 1421041015 988.3998
0779 1421044921 990.8351
0780 1421048828 991.9226
0781 1421052734 992.5775
0782 1421056640 990.8802
0783 1421060546 991.4934
0784 1421064453 991.1632
0785 1421068359 993.9913
0786 1421072265 997.4213
0787 1421076171 995.9702
0788 1421080078 995.5338
0789 1421083984 1000.8825
0790 1421087890 997.9303
0791 1421091796 998.8915
0792 1421095703 1002.2851
0793 1421099609 1002.0856
0794 1421103515 1002.4988
0795 1421107421 1007.5792
0796 1421111328 1005.3355
0797 1421115234 1007.5083
0798 1421119140 1007.6171
0799 1421123046 1012.7567
0800 1421126953 1007.1655
0801 1421130859 1009.0773
0802 1421134765 1012.9297
0803 1421138671 1008.7690
0804 1421142578 1009.2372
0805 1421146484 1011.1575
0806 1421150390 1010.7106
0807 1421154296 1012.7594
0808 1421158203 1015.1164
0809 1421162109 1011.7376
0810 1421166015 1015.9661
0811 1421169921 1013.8181
0812 1421173828 1013.3589
0813 1421177734 1013.2004
0814 1421181640 1014.3279
0815 1421185546 1015.6502
0816 1421189453 1013.8090
0817 1421193359 1010.8701
0818 1421197265 1015.6066
0819 1421201171 1010.4944
0820 1421205078 1009.8214
0821 1421208984 1013.1005
0822 1421212890 1012.9059
0823 1421216796 1008.3203
0824 1421220703 1009.8375
0825 1421224609 1010.8431
0826 1421228515 1012.9044
0827 1421232421 1010.9610
0828 1421236328 1008.7517
0829 1421240234 1007.1329
0830 1421244140 1011.4216
0831 1421248046 1005.0787
0832 1421251953 1007.1274
0833 1421255859 1006.4251
0834 1421259765 1005.2379
0835 1421263671 1001.3832
0836 1421267578 1005.9461
0837 1421271484 1000.9614
0838 1421275390 1002.0497
0839 1421279296 997.1683
0840 1421283203 998.5612
0841 1421287109 997.9542
0842 1421291015 998.4631
0843 1421294921 998.5887
0844 1421298828 1000.7972
0845 1421302734 997.4808
0846 1421306640 993.2571
0847 1421310546 996.1866
0848 1421314453 993.6467
0849 1421318359 992.4590
0850 1421322265 995.4169
0851 1421326171 989.3605
0852 1421330078 990.3064
0853 1421333984 988.4224
0854 1421337890 989.9953
0855 1421341796 989.9287
0856 1421345703 987.3090
0857 1421349609 987.9135
0858 1421353515 986.3652
0859 1421357421 985.6412
0860 1421361328 985.0639
0861 1421365234 982.2108
0862 1421369140 980.9398
0863 1421373046 985.1671
0864 1421376953 978.8750
0865 1421380859 982.7874
0866 1421384765 975.1403
0867 1421388671 977.6783
0868 1421392578 979.2966
0869 1421396484 978.2000
0870 1421400390 974.4238
0871 1421404296 975.3559
0872 1421408203 977.3048
0873 1421412109 972.7655
0874 1421416015 974.1365
0875 1421419921 975.9893
0876 1421423828 973.5430
0877 1421427734 975.7593
0878 1421431640 978.6277
0879 1421435546 972.9213
0880 1421439453 970.3506
0881 1421443359 975.0688
0882 1421447265 976.1182
0883 1421451171 975.0189
0884 1421455078 974.1823
0885 1421458984 976.1849
0886 1421462890 973.1483
0887 1421466796 975.3769
0888 1421470703 975.8668
0889 1421474609 976.1532
0890 1421478515 978.1766
0891 1421482421 977.9782
0892 1421486328 978.3042
0893 1421490234 977.6912
0894 1421494140 979.5594
0895 1421498046 978.9942
0896 1421501953 982.0178
0897 1421505859 981.8495
0898 1421509765 978.0172
0899 1421513671 981.0457
0900 1421517578 983.9554
0901 1421521484 981.8141
0902 1421525390 987.2772
0903 1421529296 986.5831
0904 1421533203 984.5776
0905 1421537109 987.1614
0906 1421541015 990.6922
0907 1421544921 992.6850
0908 1421548828 992.3362
0909 1421552734 991.5391
0910 1421556640 992.6461
0911 1421560546 998.9873
0912 1421564453 996.1089
0913 1421568359 998.6817
0914 1421572265 1001.5483
0915 1421576171 1002.6080
0916 1421580078 998.7845
0917 1421583984 1001.2139
0918 1421587890 1003.5643
0919 1421591796 1003.5972
0920 1421595703 1004.6287
0921 1421599609 1006.0929
0922 1421603515 1008.8611
0923 1421607421 1010.3494
0924 1421611328 1011.5458
0925 1421615234 1014.4938
0926 1421619140 1015.2408
0927 1421623046 1013.1304
0928 1421626953 1016.9406
0929 1421630859 1017.7603
0930 1421634765 1020.3205
0931 1421638671 1016.1261
0932 1421642578 1018.7855
0933 1421646484 1021.1105
0934 1421650390 1021.0189
0935 1421654296 1025.2167
0936 1421658203 1024.4645
0937 1421662109 1026.6316
0938 1421666015 1024.6846
0939 1421669921 1028.8668
0940 1421673828 1026.6854
0941 1421677734 1028.4518
0942 1421681640 1032.5245
0943 1421685546 1033.1230
0944 1421689453 1030.7383
0945 1421693359 1028.4644
0946 1421697265 1035.5664
0947 1421701171 1030.6998
0948 1421705078 1032.9286
0949 1421708984 1030.4949
0950 1421712890 1031.2611
0951 1421716796 1029.5266
0952 1421720703 1033.2021
0953 1421724609 1032.0649
0954 1421728515 1036.2523
0955 1421732421 1034.7108
0956 1421736328 1032.1011
0957 1421740234 1035.6350
0958 1421744140 1030.4559
0959 1421748046 1030.0483
0960 1421751953 1036.4668
0961 1421755859 1030.2408
0962 1421759765 1032.3376
0963 1421763671 1029.5524
0964 1421767578 1032.0991
0965 1421771484 1028.4171
0966 1421775390 1031.2179
0967 1421779296 1029.5707
0968 1421783203 1026.2816
0969 1421787109 1026.4463
0970 1421791015 1027.6649
0971 1421794921 1026.7148
0972 1421798828 1022.7570
0973 1421802734 1023.0848
0974 1421806640 1019.6772
0975 1421810546 1020.0164
0976 1421814453 1020.8356
0977 1421818359 1016.1702
0978 1421822265 1018.2136
0979 1421826171 1017.1521
0980 1421830078 1012.1478
0981 1421833984 1012.5692
0982 1421837890 1015.6192
0983 1421841796 1010.5492
0984 1421845703 1009.1759
0985 1421849609 1008.2734
0986 1421853515 1010.9189
0987 1421857421 1006.2873
0988 1421861328 1005.5659
0989 1421865234 1003.0331
0990 1421869140 1002.2130
0991 1421873046 1003.7463
0992 1421876953 998.2286
0993 1421880859 1001.4899
0994 1421884765 996.1165
0995 1421888671 999.4421
0996 1421892578 998.6470
0997 1421896484 995.3544
0998 1421900390 991.2209
0999 1421904296 986.4683
1000 1421908203 989.4246
1001 1421912109 990.8890
1002 1421916015 987.5228
1003 1421919921 987.4178
1004 1421923828 986.8573
1005 1421927734 987.8329
1006 1421931640 986.3506
1007 1421935546 986.1838
1008 1421939453 982.5070
1009 1421943359 980.0483
1010 1421947265 983.0689
1011 1421951171 981.5989
1012 1421955078 982.7596
1013 1421958984 982.6639
1014 1421962890 978.1171
1015 1421966796 978.3201
1016 1421970703 974.8224
1017 1421974609 982.6373
1018 1421978515 981.9199
1019 1421982421 977.5962
1020 1421986328 977.2923
1021 1421990234 978.1171
1022 1421994140 984.1378
1023 1421998046 1015.1022
1024 1422001953 1094.6084
1025 1422005859 1014.7140
1026 1422009765 986.7490
1027 1422013671 982.9446
1028 1422017578 978.1436
1029 1422021484 973.9241
1030 1422025390 974.8185
1031 1422029296 975.7480
1032 1422033203 977.9128
1033 1422037109 978.0796
1034 1422041015 980.1328
1035 1422044921 975.2205
1036 1422048828 972.5970
1037 1422052734 979.5632
1038 1422056640 980.8113
1039 1422060546 981.4351
1040 1422064453 981.0530
1041 1422068359 981.5798
1042 1422072265 983.7495
1043 1422076171 984.2705
1044 1422080078 982.2026
1045 1422083984 980.8387
1046 1422087890 983.3101
1047 1422091796 987.1646
1048 1422095703 987.1929
1049 1422099609 989.1983
1050 1422103515 986.9155
1051 1422107421 990.5235
1052 1422111328 989.8255
1053 1422115234 990.8516
1054 1422119140 991.3789
1055 1422123046 991.2082
1056 1422126953 994.4713
1057 1422130859 992.7286
1058 1422134765 996.4511
1059 1422138671 995.7685
1060 1422142578 998.9410
1061 1422146484 998.9734
1062 1422150390 1003.8646
1063 1422154296 1004.1240
1064 1422158203 1005.0573
1065 1422162109 1003.2670
1066 1422166015 1000.9250
1067 1422169921 1010.0635
1068 1422173828 1011.3587
1069 1422177734 1012.9578
1070 1422181640 1010.8588
1071 1422185546 1010.8674
1072 1422189453 1013.6962
1073 1422193359 1009.7191
1074 1422197265 1014.0830
1075 1422201171 1016.3499
1076 1422205078 1014.5159
1077 1422208984 1017.5485
1078 1422212890 1015.3758
1079 1422216796 1014.9775
1080 1422220703 1022.7236
1081 1422224609 1022.0273
1082 1422228515 1020.8094
1083 1422232421 1022.0132
1084 1422236328 1024.7203
1085 1422240234 1021.8786
1086 1422244140 1022.3792
1087 1422248046 1021.6743
1088 1422251953 1020.0339
1089 1422255859 1022.3781
1090 1422259765 1027.3507
1091 1422263671 1024.4930
1092 1422267578 1022.7836
1093 1422271484 1025.2209
1094 1422275390 1021.0743
1095 1422279296 1021.4978
1096 1422283203 1022.3125
1097 1422287109 1020.5723
1098 1422291015 1023.4274
1099 1422294921 1020.1617
1100 1422298828 1020.4778
1101 1422302734 1021.7063
1102 1422306640 1022.1716
1103 1422310546 1019.0267
1104 1422314453 1018.4288
1105 1422318359 1017.4504
1106 1422322265 1017.9460
1107 1422326171 1018.3112
1108 1422330078 1014.3317
1109 1422333984 1013.8499
1110 1422337890 1014.0980
1111 1422341796 1012.0387
1112 1422345703 1011.4067
1113 1422349609 1010.5551
1114 1422353515 1013.1052
1115 1422357421 1011.9082
1116 1422361328 1009.5482
1117 1422365234 1005.9820
1118 1422369140 1007.5396
1119 1422373046 1005.1245
1120 1422376953 1001.5477
1121 1422380859 1000.9420
1122 1422384765 998.4713
1123 1422388671 997.2455
1124 1422392578 998.8817
1125 1422396484 995.0748
1126 1422400390 993.5337
1127 1422404296 997.2209
1128 1422408203 988.9199
1129 1422412109 990.3527
1130 1422416015 990.1361
1131 1422419921 986.6535
1132 1422423828 985.7549
1133 1422427734 986.2657
1134 1422431640 985.4358
1135 1422435546 983.1566
1136 1422439453 981.6311
1137 1422443359 978.2778
1138 1422447265 983.4055
1139 1422451171 979.4703
1140 1422455078 977.0075
1141 1422458984 979.0907
1142 1422462890 979.5922
1143 1422466796 975.6660
1144 1422470703 973.2787
1145 1422474609 970.5354
1146 1422478515 969.8277
1147 1422482421 970.2122
1148 1422486328 972.4264
1149 1422490234 966.6443
1150 1422494140 966.8706
1151 1422498046 966.3911
1152 1422501953 964.6218
1153 1422505859 964.9826
1154 1422509765 969.4471
1155 1422513671 967.3351
1156 1422517578 965.0003
1157 1422521484 962.4708
1158 1422525390 963.9495
1159 1422529296 963.4859
1160 1422533203 962.2034
1161 1422537109 958.2010
1162 1422541015 960.8850
1163 1422544921 954.6347
1164 1422548828 962.7247
1165 1422552734 961.0497
1166 1422556640 956.8566
1167 1422560546 957.6081
1168 1422564453 960.9766
1169 1422568359 960.5593
1170 1422572265 961.0611
1171 1422576171 962.0449
1172 1422580078 960.8686
1173 1422583984 960.6249
1174 1422587890 957.7567
1175 1422591796 960.0034
1176 1422595703 960.2822
1177 1422599609 959.8594
1178 1422603515 964.9186
1179 1422607421 963.3088
1180 1422611328 966.8964
1181 1422615234 965.7728
1182 1422619140 966.2689
1183 1422623046 966.8500
1184 1422626953 966.2188
1185 1422630859 966.9391
1186 1422634765 963.8587
1187 1422638671 964.4368
1188 1422642578 968.5941
1189 1422646484 967.2619
1190 1422650390 971.1201
1191 1422654296 970.6533
1192 1422658203 972.9815
1193 1422662109 972.9979
1194 1422666015 976.3091
1195 1422669921 973.6482
1196 1422673828 972.2931
1197 1422677734 974.0561
1198 1422681640 975.3301
1199 1422685546 976.1381
1200 1422689453 976.9743
1201 1422693359 982.7238
1202 1422697265 980.0836
1203 1422701171 975.8004
1204 1422705078 981.4694
1205 1422708984 981.1749
1206 1422712890 983.6650
1207 1422716796 984.4162
1208 1422720703 982.6642
1209 1422724609 982.4308
1210 1422728515 988.7113
1211 1422732421 985.0958
1212 1422736328 982.6674
1213 1422740234 985.0588
1214 1422744140 988.2394
1215 1422748046 989.0164
1216 1422751953 988.4890
1217 1422755859 992.5430
1218 1422759765 996.2132
1219 1422763671 992.8760
1220 1422767578 992.8154
1221 1422771484 994.3026
1222 1422775390 993.0863
1223 1422779296 994.8082
1224 1422783203 995.6154
1225 1422787109 994.3088
1226 1422791015 996.3136
1227 1422794921 994.6379
1228 1422798828 995.7748
1229 1422802734 996.0479
1230 1422806640 995.8036
1231 1422810546 998.5689
1232 1422814453 998.5032
1233 1422818359 992.7376
1234 1422822265 993.3682
1235 1422826171 996.9695
1236 1422830078 996.3026
1237 1422833984 997.2667
1238 1422837890 996.3410
1239 1422841796 995.0000
1240 1422845703 992.3835
1241 1422849609 992.5006
1242 1422853515 997.4331
1243 1422857421 996.0174
1244 1422861328 996.4599
1245 1422865234 991.5540
1246 1422869140 992.0947
1247 1422873046 992.0311
1248 1422876953 990.3557
1249 1422880859 989.8960
1250 1422884765 990.7814
1251 1422888671 992.0334
1252 1422892578 987.9018
1253 1422896484 988.5610
1254 1422900390 986.8242
1255 1422904296 986.7661
1256 1422908203 989.4548
1257 1422912109 986.2737
1258 1422916015 986.9102
1259 1422919921 982.2283
1260 1422923828 981.4676
1261 1422927734 984.0334
1262 1422931640 982.4056
1263 1422935546 979.9582
1264 1422939453 981.3283
1265 1422943359 979.5839
1266 1422947265 973.2324
1267 1422951171 974.9512
1268 1422955078 970.4993
1269 1422958984 971.9741
1270 1422962890 971.6221
1271 1422966796 971.3303
1272 1422970703 971.9050
1273 1422974609 972.8783
1274 1422978515 971.8785
1275 1422982421 968.1765
1276 1422986328 967.7417
1277 1422990234 965.2533
1278 1422994140 964.0513
1279 1422998046 964.4979
1280 1423001953 959.5153
1281 1423005859 963.0813
1282 1423009765 959.8915
1283 1423013671 962.5306
1284 1423017578 959.0891
1285 1423021484 958.8257
1286 1423025390 954.2038
1287 1423029296 955.1162
1288 1423033203 955.9645
1289 1423037109 957.0164
1290 1423041015 953.6918
1291 1423044921 951.2422
1292 1423048828 951.4028
1293 1423052734 952.8770
1294 1423056640 956.1022
1295 1423060546 953.7069
1296 1423064453 953.2760
1297 1423068359 951.6426
1298 1423072265 948.5193
1299 1423076171 948.3516
1300 1423080078 949.8566
1301 1423083984 947.9767
1302 1423087890 948.6831
1303 1423091796 946.5244
1304 1423095703 948.3145
1305 1423099609 946.2393
1306 1423103515 945.4523
1307 1423107421 942.2284
1308 1423111328 944.1648
1309 1423115234 944.9447
1310 1423119140 942.5603
1311 1423123046 944.6631
1312 1423126953 941.7234
1313 1423130859 944.3058
1314 1423134765 944.9680
1315 1423138671 943.5463
1316 1423142578 943.6098
1317 1423146484 944.3011
1318 1423150390 944.9564
1319 1423154296 944.0181
1320 1423158203 945.9936
1321 1423162109 944.2311
1322 1423166015 947.1681
1323 1423169921 945.8223
1324 1423173828 946.2922
1325 1423177734 948.5532
1326 1423181640 949.5933
1327 1423185546 950.1086
1328 1423189453 950.2925
1329 1423193359 948.0372
1330 1423197265 950.0848
1331 1423201171 948.4471
1332 1423205078 948.9266
1333 1423208984 954.7603
1334 1423212890 951.1276
1335 1423216796 951.1079
1336 1423220703 949.3958
1337 1423224609 948.7188
1338 1423228515 953.7715
1339 1423232421 951.4064
1340 1423236328 955.4221
1341 1423240234 951.5560
1342 1423244140 953.2688
1343 1423248046 955.9996
1344 1423251953 949.8308
1345 1423255859 955.4192
1346 1423259765 953.2917
1347 1423263671 956.9261
1348 1423267578 956.7289
1349 1423271484 954.1518
1350 1423275390 953.9088
1351 1423279296 956.2789
1352 1423283203 955.6696
1353 1423287109 957.6263
1354 1423291015 954.9050
1355 1423294921 955.4561
1356 1423298828 958.6608
1357 1423302734 958.3735
1358 1423306640 958.5803
1359 1423310546 961.3145
1360 1423314453 960.3438
1361 1423318359 962.3951
1362 1423322265 958.8787
1363 1423326171 960.7050
1364 1423330078 960.4312
1365 1423333984 957.9427
1366 1423337890 962.9069
1367 1423341796 960.4264
1368 1423345703 959.9848
1369 1423349609 963.9831
1370 1423353515 965.0811
1371 1423357421 960.2151
1372 1423361328 961.3745
1373 1423365234 960.4093
1374 1423369140 963.1229
1375 1423373046 960.5287
1376 1423376953 962.1072
1377 1423380859 959.5330
1378 1423384765 962.7298
1379 1423388671 962.3629
1380 1423392578 958.2595
1381 1423396484 962.4999
1382 1423400390 962.7584
1383 1423404296 955.6072
1384 1423408203 958.4025
1385 1423412109 961.3679
1386 1423416015 961.9973
1387 1423419921 962.7358
1388 1423423828 961.3511
1389 1423427734 958.8794
1390 1423431640 960.8887
1391 1423435546 958.2719
1392 1423439453 961.1404
1393 1423443359 959.7797
1394 1423447265 956.2142
1395 1423451171 963.3068
1396 1423455078 962.4256
1397 1423458984 960.8184
1398 1423462890 956.4601
1399 1423466796 959.9826
1400 1423470703 961.1734
1401 1423474609 955.1950
1402 1423478515 958.7449
1403 1423482421 956.3884
1404 1423486328 956.6713
1405 1423490234 959.7733
1406 1423494140 956.9300
1407 1423498046 957.9677
1408 1423501953 953.9686
1409 1423505859 954.1174
1410 1423509765 957.9040
1411 1423513671 958.8607
1412 1423517578 954.7723
1413 1423521484 956.2182
1414 1423525390 959.6470
1415 1423529296 955.5966
1416 1423533203 954.4100
1417 1423537109 955.1046
1418 1423541015 955.6552
1419 1423544921 955.3478
1420 1423548828 956.8162
1421 1423552734 956.5150
1422 1423556640 953.3641
1423 1423560546 956.3346
1424 1423564453 956.8047
1425 1423568359 961.2822
1426 1423572265 958.8341
1427 1423576171 958.8381
1428 1423580078 956.9104
1429 1423583984 958.9183
1430 1423587890 959.6070
1431 1423591796 957.8508
1432 1423595703 958.1046
1433 1423599609 959.5484
1434 1423603515 956.9216
1435 1423607421 960.3480
1436 1423611328 961.9849
1437 1423615234 959.9961
1438 1423619140 962.3715
1439 1423623046 959.2450
1440 1423626953 961.1072
1441 1423630859 961.7622
1442 1423634765 962.4844
1443 1423638671 962.8057
1444 1423642578 965.4047
1445 1423646484 963.4421
1446 1423650390 962.1328
1447 1423654296 964.6498
1448 1423658203 959.8499
1449 1423662109 963.1061
1450 1423666015 963.9700
1451 1423669921 969.8438
1452 1423673828 966.5424
1453 1423677734 968.5793
1454 1423681640 962.7582
1455 1423685546 967.0409
1456 1423689453 972.3727
1457 1423693359 969.8096
1458 1423697265 969.2444
1459 1423701171 974.6335
1460 1423705078 976.0529
1461 1423708984 973.5237
1462 1423712890 974.3536
1463 1423716796 973.6700
1464 1423720703 974.7566
1465 1423724609 975.3899
1466 1423728515 975.5618
1467 1423732421 974.1393
1468 1423736328 978.4078
1469 1423740234 976.4355
1470 1423744140 976.7856
1471 1423748046 975.0998
1472 1423751953 979.4479
1473 1423755859 979.4030
1474 1423759765 979.6892
1475 1423763671 977.8614
1476 1423767578 981.0369
1477 1423771484 979.5818
1478 1423775390 980.9631
1479 1423779296 987.0517
1480 1423783203 979.9718
1481 1423787109 975.3755
1482 1423791015 984.3060
1483 1423794921 982.1522
1484 1423798828 984.2732
1485 1423802734 985.5021
1486 1423806640 985.2145
1487 1423810546 986.8171
1488 1423814453 987.1996
1489 1423818359 985.5462
1490 1423822265 985.0381
1491 1423826171 987.9604
1492 1423830078 986.6376
1493 1423833984 984.6379
1494 1423837890 986.2209
1495 1423841796 988.4536
1496 1423845703 984.0591
1497 1423849609 980.9594
1498 1423853515 984.3328
1499 1423857421 986.9136
1500 1423861328 985.4075
1501 1423865234 986.9027
1502 1423869140 982.8438
1503 1423873046 982.6738
1504 1423876953 986.2999
1505 1423880859 990.5896
1506 1423884765 987.0049
1507 1423888671 987.5436
1508 1423892578 985.0745
1509 1423896484 985.6539
1510 1423900390 986.0095
1511 1423904296 985.5232
1512 1423908203 984.4958
1513 1423912109 984.8237
1514 1423916015 985.3940
1515 1423919921 989.2049
1516 1423923828 985.4057
1517 1423927734 984.8399
1518 1423931640 982.7565
1519 1423935546 983.8405
1520 1423939453 984.3177
1521 1423943359 986.6906
1522 1423947265 982.5228
1523 1423951171 986.6915
1524 1423955078 985.2135
1525 1423958984 987.3996
1526 1423962890 984.1137
1527 1423966796 983.1843
1528 1423970703 981.7860
1529 1423974609 983.1968
1530 1423978515 981.2098
1531 1423982421 983.9091
1532 1423986328 982.7766
1533 1423990234 982.9043
1534 1423994140 983.5240
1535 1423998046 986.8815
1536 1424001953 993.9836
1537 1424005859 987.4325
1538 1424009765 977.4048
1539 1424013671 981.3652
1540 1424017578 984.0984
1541 1424021484 985.2467
1542 1424025390 982.8859
1543 1424029296 980.5214
1544 1424033203 984.1259
1545 1424037109 978.1832
1546 1424041015 981.6171
1547 1424044921 984.8054
1548 1424048828 977.9336
1549 1424052734 981.1148
1550 1424056640 978.7321
1551 1424060546 981.1560
1552 1424064453 982.3720
1553 1424068359 979.5845
1554 1424072265 983.4568
1555 1424076171 982.7023
1556 1424080078 981.0955
1557 1424083984 988.6746
1558 1424087890 982.0649
1559 1424091796 984.2707
1560 1424095703 983.4401
1561 1424099609 986.4312
1562 1424103515 987.3953
1563 1424107421 985.5052
1564 1424111328 984.2997
1565 1424115234 988.2045
1566 1424119140 988.7529
1567 1424123046 987.8952
1568 1424126953 986.6473
1569 1424130859 990.5611
1570 1424134765 989.4823
1571 1424138671 988.7094
1572 1424142578 988.8057
1573 1424146484 987.9092
1574 1424150390 991.4919
1575 1424154296 993.9086
1576 1424158203 993.1689
1577 1424162109 993.1658
1578 1424166015 992.1159
1579 1424169921 997.5711
1580 1424173828 992.6276
1581 1424177734 998.7496
1582 1424181640 997.6802
1583 1424185546 999.1192
1584 1424189453 997.6805
1585 1424193359 997.5126
1586 1424197265 1001.8994
1587 1424201171 1001.9006
1588 1424205078 1004.4843
1589 1424208984 1003.2713
1590 1424212890 1004.1075
1591 1424216796 1005.6104
1592 1424220703 1010.5298
1593 1424224609 1009.5640
1594 1424228515 1005.8535
1595 1424232421 1006.0334
1596 1424236328 1008.5091
1597 1424240234 1009.2306
1598 1424244140 1008.7090
1599 1424248046 1015.2372
1600 1424251953 1008.1672
1601 1424255859 1017.2037
1602 1424259765 1016.2800
1603 1424263671 1015.0428
1604 1424267578 1015.1209
1605 1424271484 1014.0896
1606 1424275390 1015.8486
1607 1424279296 1017.0387
1608 1424283203 1018.3849
1609 1424287109 1018.6894
1610 1424291015 1020.4648
1611 1424294921 1019.8252
1612 1424298828 1018.7489
1613 1424302734 1021.3735
1614 1424306640 1022.3314
1615 1424310546 1020.3930
1616 1424314453 1018.0339
1617 1424318359 1024.0967
1618 1424322265 1023.4437
1619 1424326171 1025.5311
1620 1424330078 1020.9691
1621 1424333984 1025.8219
1622 1424337890 1027.5088
1623 1424341796 1025.5195
1624 1424345703 1025.8787
1625 1424349609 1026.9490
1626 1424353515 1028.9435
1627 1424357421 1029.8754
1628 1424361328 1024.9388
1629 1424365234 1025.9468
1630 1424369140 1030.1112
1631 1424373046 1026.5731
1632 1424376953 1027.5631
1633 1424380859 1028.6367
1634 1424384765 1026.8584
1635 1424388671 1027.9283
1636 1424392578 1033.5601
1637 1424396484 1033.1747
1638 1424400390 1026.3225
1639 1424404296 1026.7367
1640 1424408203 1028.3795
1641 1424412109 1030.9280
1642 1424416015 1030.7441
1643 1424419921 1027.8779
1644 1424423828 1029.0162
1645 1424427734 1027.1071
1646 1424431640 1028.7319
1647 1424435546 1028.7036
1648 1424439453 1029.5416
1649 1424443359 1028.5824
1650 1424447265 1024.4458
1651 1424451171 1025.3635
1652 1424455078 1024.6342
1653 1424458984 1034.3679
1654 1424462890 1027.8495
1655 1424466796 1026.1501
1656 1424470703 1024.9019
1657 1424474609 1029.3007
1658 1424478515 1026.7362
1659 1424482421 1026.5654
1660 1424486328 1022.5386
1661 1424490234 1023.3862
1662 1424494140 1020.9903
1663 1424498046 1025.0806
1664 1424501953 1026.0986
1665 1424505859 1024.5245
1666 1424509765 1025.9847
1667 1424513671 1023.3812
1668 1424517578 1028.0778
1669 1424521484 1022.7630
1670 1424525390 1026.2238
1671 1424529296 1022.8304
1672 1424533203 1032.2073
1673 1424537109 1024.8701
1674 1424541015 1025.4839
1675 1424544921 1025.0884
1676 1424548828 1024.6079
1677 1424552734 1022.0284
1678 1424556640 1020.6407
1679 1424560546 1022.5563
1680 1424564453 1022.2725
1681 1424568359 1024.6610
1682 1424572265 1021.3019
1683 1424576171 1016.5581
1684 1424580078 1022.4751
1685 1424583984 1021.2978
1686 1424587890 1021.1329
1687 1424591796 1022.1279
1688 1424595703 1021.3224
1689 1424599609 1017.9564
1690 1424603515 1017.6301
1691 1424607421 1021.1165
1692 1424611328 1021.5228
1693 1424615234 1018.4835
1694 1424619140 1016.0413
1695 1424623046 1016.3246
1696 1424626953 1019.6947
1697 1424630859 1018.6748
1698 1424634765 1018.5788
1699 1424638671 1015.4231
1700 1424642578 1014.2368
1701 1424646484 1016.4198
1702 1424650390 1020.7027
1703 1424654296 1017.7151
1704 1424658203 1015.4146
1705 1424662109 1016.6730
1706 1424666015 1017.3814
1707 1424669921 1012.6187
1708 1424673828 1017.5900
1709 1424677734 1016.6026
1710 1424681640 1012.6608
1711 1424685546 1014.5783
1712 1424689453 1012.9111
1713 1424693359 1012.9736
1714 1424697265 1007.4753
1715 1424701171 1004.5800
1716 1424705078 1009.6573
1717 1424708984 1007.5737
1718 1424712890 1008.4806
1719 1424716796 1008.8619
1720 1424720703 1004.0922
1721 1424724609 1001.9965
1722 1424728515 1007.1288
1723 1424732421 1005.4326
1724 1424736328 1006.0316
1725 1424740234 1006.4040
1726 1424744140 1003.6583
1727 1424748046 1001.4879
1728 1424751953 999.0889
1729 1424755859 997.6429
1730 1424759765 1000.7064
1731 1424763671 1000.1541
1732 1424767578 999.2716
1733 1424771484 994.7023
1734 1424775390 994.6309
1735 1424779296 990.3026
1736 1424783203 993.2892
1737 1424787109 992.2924
1738 1424791015 993.4846
1739 1424794921 985.7957
1740 1424798828 988.7978
1741 1424802734 985.9801
1742 1424806640 982.6520
1743 1424810546 980.5372
1744 1424814453 978.1756
1745 1424818359 978.2186
1746 1424822265 976.3619
1747 1424826171 976.5018
1748 1424830078 971.7915
1749 1424833984 977.2624
1750 1424837890 972.2308
1751 1424841796 971.1532
1752 1424845703 970.1889
1753 1424849609 970.6182
1754 1424853515 967.2753
1755 1424857421 965.3523
1756 1424861328 964.3096
1757 1424865234 962.2875
1758 1424869140 963.4713
1759 1424873046 957.9748
1760 1424876953 957.0139
1761 1424880859 958.5943
1762 1424884765 955.2898
1763 1424888671 955.5208
1764 1424892578 953.5001
1765 1424896484 956.7274
1766 1424900390 949.2532
1767 1424904296 949.0787
1768 1424908203 947.9968
1769 1424912109 949.4242
1770 1424916015 945.7542
1771 1424919921 944.3134
1772 1424923828 942.2668
1773 1424927734 940.1818
1774 1424931640 945.3619
1775 1424935546 947.4766
1776 1424939453 941.8340
1777 1424943359 939.0769
1778 1424947265 939.4996
1779 1424951171 939.8409
1780 1424955078 938.0242
1781 1424958984 939.5613
1782 1424962890 939.2591
1783 1424966796 933.9936
1784 1424970703 942.8197
1785 1424974609 941.0858
1786 1424978515 939.5786
1787 1424982421 936.6237
1788 1424986328 939.4002
1789 1424990234 937.4562
1790 1424994140 936.7261
1791 1424998046 944.0618
1792 1425001953 952.7903
1793 1425005859 989.9236
1794 1425009765 987.7173
1795 1425013671 944.3081
1796 1425017578 943.7186
1797 1425021484 942.6776
1798 1425025390 946.2626
1799 1425029296 947.7004
1800 1425033203 947.1106
1801 1425037109 949.9958
1802 1425041015 951.1193
1803 1425044921 952.5587
1804 1425048828 955.7286
1805 1425052734 953.5339
1806 1425056640 960.6638
1807 1425060546 958.4594
1808 1425064453 962.3403
1809 1425068359 968.3414
1810 1425072265 967.6425
1811 1425076171 968.2112
1812 1425080078 969.5768
1813 1425083984 976.1309
1814 1425087890 974.1553
1815 1425091796 980.7499
1816 1425095703 981.8791
1817 1425099609 982.5915
1818 1425103515 989.2728
1819 1425107421 989.1157
1820 1425111328 992.1222
1821 1425115234 999.4999
1822 1425119140 998.5511
1823 1425123046 1002.7081
1824 1425126953 1005.4506
1825 1425130859 1008.9517
1826 1425134765 1007.7025
1827 1425138671 1011.7982
1828 1425142578 1014.0107
1829 1425146484 1019.4750
1830 1425150390 1022.5368
1831 1425154296 1022.4977
1832 1425158203 1025.8682
1833 1425162109 1031.7716
1834 1425166015 1034.2719
1835 1425169921 1036.5754
1836 1425173828 1040.2964
1837 1425177734 1046.4280
1838 1425181640 1043.9480
1839 1425185546 1054.0509
1840 1425189453 1055.6719
1841 1425193359 1053.2556
1842 1425197265 1059.3378
1843 1425201171 1056.1495
1844 1425205078 1058.7460
1845 1425208984 1060.0836
1846 1425212890 1060.9407
1847 1425216796 1061.7861
1848 1425220703 1064.7186
1849 1425224609 1068.8595
1850 1425228515 1066.8090
1851 1425232421 1067.2587
1852 1425236328 1070.3143
1853 1425240234 1061.3136
1854 1425244140 1068.2373
1855 1425248046 1068.4478
1856 1425251953 1065.3577
1857 1425255859 1067.7928
1858 1425259765 1065.9495
1859 1425263671 1063.0032
1860 1425267578 1057.8063
1861 1425271484 1061.5514
1862 1425275390 1056.2499
1863 1425279296 1052.8712
1864 1425283203 1048.9777
1865 1425287109 1050.6772
1866 1425291015 1041.6062
1867 1425294921 1042.4584
1868 1425298828 1037.3206
1869 1425302734 1027.8921
1870 1425306640 1025.4172
1871 1425310546 1017.8109
1872 1425314453 1011.5641
1873 1425318359 1002.7615
1874 1425322265 995.1529
1875 1425326171 994.0100
1876 1425330078 987.9741
1877 1425333984 977.7071
1878 1425337890 970.1534
1879 1425341796 959.4235
1880 1425345703 949.7336
1881 1425349609 943.6882
1882 1425353515 931.2234
1883 1425357421 919.9572
1884 1425361328 911.7677
1885 1425365234 903.4114
1886 1425369140 886.1579
1887 1425373046 876.2507
1888 1425376953 863.4058
1889 1425380859 853.7841
1890 1425384765 837.6652
1891 1425388671 828.8127
1892 1425392578 813.7671
1893 1425396484 799.1986
1894 1425400390 789.2039
1895 1425404296 774.9814
1896 1425408203 761.2292
1897 1425412109 749.5641
1898 1425416015 732.3533
1899 1425419921 716.4120
1900 1425423828 704.4613
1901 1425427734 688.5645
1902 1425431640 671.5574
1903 1425435546 655.4838
1904 1425439453 642.3616
1905 1425443359 624.4792
1906 1425447265 612.8336
1907 1425451171 596.1360
1908 1425455078 579.7769
1909 1425458984 562.4590
1910 1425462890 548.5267
1911 1425466796 531.9240
1912 1425470703 515.3973
1913 1425474609 500.0347
1914 1425478515 484.4418
1915 1425482421 468.5462
1916 1425486328 454.2939
1917 1425490234 440.0937
1918 1425494140 423.4722
1919 1425498046 409.2148
1920 1425501953 395.6676
1921 1425505859 380.7035
1922 1425509765 365.6795
1923 1425513671 351.1319
1924 1425517578 336.8014
1925 1425521484 324.4529
1926 1425525390 310.4413
1927 1425529296 296.7928
1928 1425533203 284.8407
1929 1425537109 271.7390
1930 1425541015 258.5152
1931 1425544921 247.5398
1932 1425548828 235.0969
1933 1425552734 224.9112
1934 1425556640 212.7455
1935 1425560546 201.3158
1936 1425564453 191.9525
1937 1425568359 181.9000
1938 1425572265 171.2036
1939 1425576171 162.1546
1940 1425580078 153.2188
1941 1425583984 143.9667
1942 1425587890 135.7991
1943 1425591796 126.9818
1944 1425595703 119.3807
1945 1425599609 111.8343
1946 1425603515 105.0027
1947 1425607421 97.9849
1948 1425611328 91.1374
1949 1425615234 84.8985
1950 1425619140 79.1162
1951 1425623046 73.5607
1952 1425626953 67.9975
1953 1425630859 62.8234
1954 1425634765 58.0583
1955 1425638671 53.6061
1956 1425642578 49.2776
1957 1425646484 45.2572
1958 1425650390 41.5696
1959 1425654296 37.8843
1960 1425658203 34.6876
1961 1425662109 31.5052
1962 1425666015 28.6214
1963 1425669921 25.8907
1964 1425673828 23.4757
1965 1425677734 21.1404
1966 1425681640 19.0313
1967 1425685546 16.9825
1968 1425689453 15.2169
1969 1425693359 13.4936
1970 1425697265 11.9870
1971 1425701171 10.5994
1972 1425705078 9.2961
1973 1425708984 8.1727
1974 1425712890 7.0774
1975 1425716796 6.1741
1976 1425720703 5.3320
1977 1425724609 4.5724
1978 1425728515 3.9017
1979 1425732421 3.3074
1980 1425736328 2.7806
1981 1425740234 2.3024
1982 1425744140 1.8981
1983 1425748046 1.5422
1984 1425751953 1.2459
1985 1425755859 0.9871
1986 1425759765 0.7665
1987 1425763671 0.5835
1988 1425767578 0.4350
1989 1425771484 0.3151
1990 1425775390 0.2189
1991 1425779296 0.1473
1992 1425783203 0.0945
1993 1425787109 0.0595
1994 1425791015 0.0395
1995 1425794921 0.0325
1996 1425798828 0.0362
1997 1425802734 0.0491
1998 1425806640 0.0695
1999 1425810546 0.0961
2000 1425814453 0.1279
2001 1425818359 0.1626
2002 1425822265 0.2010
2003 1425826171 0.2402
2004 1425830078 0.2803
2005 1425833984 0.3212
2006 1425837890 0.3625
2007 1425841796 0.4028
2008 1425845703 0.4419
2009 1425849609 0.4794
2010 1425853515 0.5171
2011 1425857421 0.5500
2012 1425861328 0.5814
2013 1425865234 0.6137
2014 1425869140 0.6425
2015 1425873046 0.6668
2016 1425876953 0.6935
2017 1425880859 0.7137
2018 1425884765 0.7359
2019 1425888671 0.7495
2020 1425892578 0.7658
2021 1425896484 0.7777
2022 1425900390 0.7905
2023 1425904296 0.8001
2024 1425908203 0.8097
2025 1425912109 0.8178
2026 1425916015 0.8244
2027 1425919921 0.8302
2028 1425923828 0.8353
2029 1425927734 0.8367
2030 1425931640 0.8376
2031 1425935546 0.8419
2032 1425939453 0.8433
2033 1425943359 0.8472
2034 1425947265 0.8460
2035 1425951171 0.8455
2036 1425955078 0.8452
2037 1425958984 0.8430
2038 1425962890 0.8411
2039 1425966796 0.8444
2040 1425970703 0.8405
2041 1425974609 0.8419
2042 1425978515 0.8425
2043 1425982421 0.8395
2044 1425986328 0.8378
2045 1425990234 0.8386
2046 1425994140 0.8378
2047 1425998046 0.8413
