# File: 20-11-28T180259.hot
# NOTEA     = RSP1A+GPIOLabs Pi #1 On Horn
# NOTEB     = Sdrplay 8 MHz Test
# OBSERVER  = Science Aficionado
# DEVICE    = SDRPlay RSP1A
# DATADIR   = ../data/
# SITE      = RSP1A+GPIOLabs Pi #1 On Horn
# CITY      = Green Bank
# REGION    = West Virginia
# COUNTRY   = US
# TELTYPE   = Bubble Wrap  Horn
# FRAME     = TOPO
# GAIN1     = 0.0
# GAIN2     = 12.0
# GAIN3     = 12.0
# GAIN4     = 0.0
# Count     = 360000
# CenterFreq= 1422000000.0
# Bandwidth = 8000000.0
# Duration  = 157.267097
# DeltaX    = 5859.375
# TSYS      = 200.0
# TRX       = 100.0
# TRMS      = 2.0
# TINT      = 1.0
# KPERC     = 100.0
# GAINFACT  = 1.0
# BUNIT     = Counts
# NCHAN     = 2048
# NSPEC     = 1
# NTIME     = 0
# NSAMPLES  = 0
# EPEAK     = 4.10875183718
# ERMS      = 0.995973393526
# EMJD      = 58568.808999981004 
# REFCHAN   = 1024.0
# REFSAMPL  = 256.0
# NAVE      = 600
# NMEDIAN   = 1024
# Fft_rate  = 5000
# UTC       = 2020-11-28 18:02:59.990848
# SECONDS   =       0.0000000000 
# LST       = 17:16:00.880
# AZ        = 180.0
# EL        = -40.0
# TELLON    = -79:50:22.920
# TELLAT    = +38:25:59.160
# RA        = 05:46:55.250
# DEC       = -88:27:48.600
# GALLON    = 301:16:01.80
# GALLAT    = -27:32:43.00
# ALT_SUN   = +28:43:31.9
# AZ_SUN    = +194:43:36.0
# ETAA      = 0.8
# ETAB      = 0.99
# POLANGLE  = 0.0
# TELSIZEAM = 1.0
# TELSIZEBM = 1.0
# AST_VERS  = 05.01
0000 1418001953 0.8199
0001 1418005859 0.8176
0002 1418009765 0.8259
0003 1418013671 0.8249
0004 1418017578 0.8281
0005 1418021484 0.8338
0006 1418025390 0.8305
0007 1418029296 0.8344
0008 1418033203 0.8337
0009 1418037109 0.8388
0010 1418041015 0.8359
0011 1418044921 0.8386
0012 1418048828 0.8413
0013 1418052734 0.8433
0014 1418056640 0.8459
0015 1418060546 0.8508
0016 1418064453 0.8491
0017 1418068359 0.8502
0018 1418072265 0.8471
0019 1418076171 0.8467
0020 1418080078 0.8464
0021 1418083984 0.8409
0022 1418087890 0.8345
0023 1418091796 0.8335
0024 1418095703 0.8247
0025 1418099609 0.8171
0026 1418103515 0.8018
0027 1418107421 0.7938
0028 1418111328 0.7785
0029 1418115234 0.7664
0030 1418119140 0.7480
0031 1418123046 0.7266
0032 1418126953 0.7069
0033 1418130859 0.6817
0034 1418134765 0.6552
0035 1418138671 0.6267
0036 1418142578 0.5964
0037 1418146484 0.5643
0038 1418150390 0.5303
0039 1418154296 0.4893
0040 1418158203 0.4515
0041 1418162109 0.4126
0042 1418166015 0.3713
0043 1418169921 0.3294
0044 1418173828 0.2875
0045 1418177734 0.2460
0046 1418181640 0.2053
0047 1418185546 0.1664
0048 1418189453 0.1305
0049 1418193359 0.0976
0050 1418197265 0.0704
0051 1418201171 0.0498
0052 1418205078 0.0362
0053 1418208984 0.0324
0054 1418212890 0.0398
0055 1418216796 0.0604
0056 1418220703 0.0967
0057 1418224609 0.1504
0058 1418228515 0.2235
0059 1418232421 0.3227
0060 1418236328 0.4463
0061 1418240234 0.6005
0062 1418244140 0.7828
0063 1418248046 1.0125
0064 1418251953 1.2829
0065 1418255859 1.5942
0066 1418259765 1.9556
0067 1418263671 2.3684
0068 1418267578 2.8461
0069 1418271484 3.4037
0070 1418275390 4.0247
0071 1418279296 4.7004
0072 1418283203 5.4780
0073 1418287109 6.3630
0074 1418291015 7.3004
0075 1418294921 8.4185
0076 1418298828 9.6086
0077 1418302734 10.8934
0078 1418306640 12.3422
0079 1418310546 13.8821
0080 1418314453 15.6340
0081 1418318359 17.4896
0082 1418322265 19.5017
0083 1418326171 21.6658
0084 1418330078 24.1535
0085 1418333984 26.6958
0086 1418337890 29.4150
0087 1418341796 32.4838
0088 1418345703 35.5949
0089 1418349609 38.7853
0090 1418353515 42.6510
0091 1418357421 46.8763
0092 1418361328 50.8337
0093 1418365234 55.1941
0094 1418369140 59.8612
0095 1418373046 65.1317
0096 1418376953 70.1258
0097 1418380859 75.7402
0098 1418384765 81.8022
0099 1418388671 87.5051
0100 1418392578 94.0088
0101 1418396484 100.6910
0102 1418400390 107.9092
0103 1418404296 115.2840
0104 1418408203 123.1475
0105 1418412109 131.3981
0106 1418416015 139.5464
0107 1418419921 148.0698
0108 1418423828 157.6141
0109 1418427734 167.1292
0110 1418431640 177.3726
0111 1418435546 187.0490
0112 1418439453 197.2399
0113 1418443359 208.9146
0114 1418447265 219.6158
0115 1418451171 231.3020
0116 1418455078 242.5977
0117 1418458984 253.2873
0118 1418462890 268.2462
0119 1418466796 280.6681
0120 1418470703 292.4598
0121 1418474609 305.4991
0122 1418478515 319.2415
0123 1418482421 334.2735
0124 1418486328 348.3973
0125 1418490234 362.7422
0126 1418494140 375.0411
0127 1418498046 390.7364
0128 1418501953 406.0126
0129 1418505859 421.3014
0130 1418509765 437.6173
0131 1418513671 452.0177
0132 1418517578 467.8476
0133 1418521484 484.1280
0134 1418525390 499.9484
0135 1418529296 514.5732
0136 1418533203 530.9747
0137 1418537109 548.4676
0138 1418541015 564.0475
0139 1418544921 581.6819
0140 1418548828 597.5402
0141 1418552734 614.1265
0142 1418556640 628.6594
0143 1418560546 646.5792
0144 1418564453 659.3809
0145 1418568359 676.9048
0146 1418572265 689.0045
0147 1418576171 707.2140
0148 1418580078 722.2913
0149 1418583984 738.8248
0150 1418587890 753.6133
0151 1418591796 771.6861
0152 1418595703 785.9683
0153 1418599609 797.2244
0154 1418603515 812.4303
0155 1418607421 826.0907
0156 1418611328 842.7731
0157 1418615234 856.0563
0158 1418619140 868.0345
0159 1418623046 878.3297
0160 1418626953 895.5477
0161 1418630859 903.0269
0162 1418634765 919.4791
0163 1418638671 929.0724
0164 1418642578 936.3700
0165 1418646484 947.0802
0166 1418650390 961.7605
0167 1418654296 969.4082
0168 1418658203 981.4732
0169 1418662109 988.6059
0170 1418666015 997.4446
0171 1418669921 1002.4771
0172 1418673828 1014.3541
0173 1418677734 1023.5466
0174 1418681640 1027.0458
0175 1418685546 1036.9824
0176 1418689453 1040.7224
0177 1418693359 1050.4427
0178 1418697265 1054.1466
0179 1418701171 1062.5057
0180 1418705078 1067.2446
0181 1418708984 1069.8286
0182 1418712890 1074.5341
0183 1418716796 1080.7489
0184 1418720703 1083.0736
0185 1418724609 1087.6229
0186 1418728515 1088.1613
0187 1418732421 1089.6194
0188 1418736328 1091.1943
0189 1418740234 1101.0410
0190 1418744140 1097.6445
0191 1418748046 1101.5128
0192 1418751953 1102.1000
0193 1418755859 1101.2142
0194 1418759765 1097.2172
0195 1418763671 1103.2598
0196 1418767578 1100.9885
0197 1418771484 1100.3917
0198 1418775390 1102.1960
0199 1418779296 1100.2030
0200 1418783203 1096.8983
0201 1418787109 1095.4980
0202 1418791015 1093.7981
0203 1418794921 1094.2448
0204 1418798828 1092.4281
0205 1418802734 1090.0300
0206 1418806640 1088.6572
0207 1418810546 1084.6110
0208 1418814453 1083.2375
0209 1418818359 1077.5542
0210 1418822265 1079.0272
0211 1418826171 1074.6995
0212 1418830078 1068.3765
0213 1418833984 1070.0433
0214 1418837890 1072.5193
0215 1418841796 1060.8920
0216 1418845703 1058.9393
0217 1418849609 1054.3188
0218 1418853515 1053.2231
0219 1418857421 1050.1433
0220 1418861328 1045.5597
0221 1418865234 1045.4744
0222 1418869140 1040.0541
0223 1418873046 1038.2072
0224 1418876953 1037.6776
0225 1418880859 1032.8325
0226 1418884765 1029.1357
0227 1418888671 1023.6856
0228 1418892578 1022.5267
0229 1418896484 1023.7634
0230 1418900390 1020.6663
0231 1418904296 1014.3182
0232 1418908203 1007.3708
0233 1418912109 1009.6816
0234 1418916015 1006.8560
0235 1418919921 1005.0021
0236 1418923828 1002.0284
0237 1418927734 1001.1647
0238 1418931640 994.8771
0239 1418935546 993.1623
0240 1418939453 993.5794
0241 1418943359 988.5124
0242 1418947265 988.7189
0243 1418951171 988.4348
0244 1418955078 989.6326
0245 1418958984 983.2935
0246 1418962890 980.4268
0247 1418966796 980.1424
0248 1418970703 976.5764
0249 1418974609 975.2635
0250 1418978515 975.0781
0251 1418982421 972.3734
0252 1418986328 974.0448
0253 1418990234 969.9975
0254 1418994140 968.9703
0255 1418998046 968.6823
0256 1419001953 974.6724
0257 1419005859 973.9145
0258 1419009765 969.7386
0259 1419013671 969.3708
0260 1419017578 965.2992
0261 1419021484 968.8469
0262 1419025390 963.8591
0263 1419029296 963.8996
0264 1419033203 965.3027
0265 1419037109 968.1037
0266 1419041015 968.3970
0267 1419044921 967.7696
0268 1419048828 964.4832
0269 1419052734 965.6207
0270 1419056640 967.9777
0271 1419060546 968.4882
0272 1419064453 966.9070
0273 1419068359 967.2016
0274 1419072265 972.3692
0275 1419076171 971.5118
0276 1419080078 970.5208
0277 1419083984 975.9141
0278 1419087890 975.8961
0279 1419091796 975.2966
0280 1419095703 972.8516
0281 1419099609 977.4026
0282 1419103515 978.3118
0283 1419107421 981.0021
0284 1419111328 978.8259
0285 1419115234 984.9805
0286 1419119140 989.2624
0287 1419123046 985.3038
0288 1419126953 988.3108
0289 1419130859 988.7103
0290 1419134765 989.6247
0291 1419138671 988.0516
0292 1419142578 998.0815
0293 1419146484 994.4480
0294 1419150390 990.7269
0295 1419154296 996.4240
0296 1419158203 999.4247
0297 1419162109 995.2707
0298 1419166015 996.8133
0299 1419169921 998.2128
0300 1419173828 999.6718
0301 1419177734 1001.0572
0302 1419181640 1006.2016
0303 1419185546 1007.7413
0304 1419189453 1006.4977
0305 1419193359 1008.2361
0306 1419197265 1010.1650
0307 1419201171 1009.1189
0308 1419205078 1013.4984
0309 1419208984 1014.4420
0310 1419212890 1016.2171
0311 1419216796 1015.8310
0312 1419220703 1015.0528
0313 1419224609 1017.1895
0314 1419228515 1018.0687
0315 1419232421 1015.9162
0316 1419236328 1019.6296
0317 1419240234 1024.6808
0318 1419244140 1020.6781
0319 1419248046 1021.6364
0320 1419251953 1022.9507
0321 1419255859 1024.7687
0322 1419259765 1029.7417
0323 1419263671 1027.8245
0324 1419267578 1029.7180
0325 1419271484 1028.2350
0326 1419275390 1030.8829
0327 1419279296 1028.7461
0328 1419283203 1031.8577
0329 1419287109 1030.5271
0330 1419291015 1036.6169
0331 1419294921 1034.7173
0332 1419298828 1031.1399
0333 1419302734 1031.7543
0334 1419306640 1035.4261
0335 1419310546 1036.5284
0336 1419314453 1036.8641
0337 1419318359 1037.5435
0338 1419322265 1037.7521
0339 1419326171 1036.8326
0340 1419330078 1037.2993
0341 1419333984 1041.9098
0342 1419337890 1040.9155
0343 1419341796 1038.2207
0344 1419345703 1039.4938
0345 1419349609 1038.5267
0346 1419353515 1037.5701
0347 1419357421 1038.1921
0348 1419361328 1038.9885
0349 1419365234 1039.1390
0350 1419369140 1039.3458
0351 1419373046 1041.6497
0352 1419376953 1045.2673
0353 1419380859 1043.3379
0354 1419384765 1043.5270
0355 1419388671 1040.8843
0356 1419392578 1040.4474
0357 1419396484 1043.9769
0358 1419400390 1042.3562
0359 1419404296 1042.3101
0360 1419408203 1039.7795
0361 1419412109 1040.9801
0362 1419416015 1040.3757
0363 1419419921 1040.3724
0364 1419423828 1044.1377
0365 1419427734 1047.7487
0366 1419431640 1045.6912
0367 1419435546 1039.9713
0368 1419439453 1041.7800
0369 1419443359 1043.8185
0370 1419447265 1045.0604
0371 1419451171 1046.9243
0372 1419455078 1047.2317
0373 1419458984 1041.1331
0374 1419462890 1042.3051
0375 1419466796 1044.0559
0376 1419470703 1037.6814
0377 1419474609 1043.5680
0378 1419478515 1044.0637
0379 1419482421 1048.3785
0380 1419486328 1047.6011
0381 1419490234 1041.1558
0382 1419494140 1046.9177
0383 1419498046 1044.4480
0384 1419501953 1044.2261
0385 1419505859 1044.0680
0386 1419509765 1046.7284
0387 1419513671 1045.3320
0388 1419517578 1051.4242
0389 1419521484 1046.4189
0390 1419525390 1044.2008
0391 1419529296 1045.5669
0392 1419533203 1047.5400
0393 1419537109 1045.4884
0394 1419541015 1044.8947
0395 1419544921 1043.5082
0396 1419548828 1045.0707
0397 1419552734 1047.4752
0398 1419556640 1044.0204
0399 1419560546 1046.3419
0400 1419564453 1049.1263
0401 1419568359 1046.9019
0402 1419572265 1046.0300
0403 1419576171 1050.5077
0404 1419580078 1051.1239
0405 1419583984 1047.1681
0406 1419587890 1046.5022
0407 1419591796 1045.6986
0408 1419595703 1048.1027
0409 1419599609 1045.0675
0410 1419603515 1049.3466
0411 1419607421 1048.8687
0412 1419611328 1044.3346
0413 1419615234 1047.7335
0414 1419619140 1046.2120
0415 1419623046 1048.1086
0416 1419626953 1046.8781
0417 1419630859 1044.9150
0418 1419634765 1042.6366
0419 1419638671 1040.3605
0420 1419642578 1041.9253
0421 1419646484 1043.1384
0422 1419650390 1043.5186
0423 1419654296 1044.7770
0424 1419658203 1040.0746
0425 1419662109 1043.7731
0426 1419666015 1039.0370
0427 1419669921 1039.1022
0428 1419673828 1038.1672
0429 1419677734 1039.7291
0430 1419681640 1038.5518
0431 1419685546 1040.7382
0432 1419689453 1038.1938
0433 1419693359 1038.5071
0434 1419697265 1036.3002
0435 1419701171 1035.7067
0436 1419705078 1031.3217
0437 1419708984 1039.1184
0438 1419712890 1035.7748
0439 1419716796 1035.3750
0440 1419720703 1034.9539
0441 1419724609 1035.4390
0442 1419728515 1029.5215
0443 1419732421 1027.9895
0444 1419736328 1030.0360
0445 1419740234 1029.5959
0446 1419744140 1028.0459
0447 1419748046 1027.4064
0448 1419751953 1023.9510
0449 1419755859 1026.5132
0450 1419759765 1026.2915
0451 1419763671 1023.3430
0452 1419767578 1026.4637
0453 1419771484 1023.7128
0454 1419775390 1020.5397
0455 1419779296 1018.3704
0456 1419783203 1021.7499
0457 1419787109 1017.2596
0458 1419791015 1019.1252
0459 1419794921 1017.5428
0460 1419798828 1018.6200
0461 1419802734 1012.8138
0462 1419806640 1011.8159
0463 1419810546 1013.1752
0464 1419814453 1012.8298
0465 1419818359 1012.0568
0466 1419822265 1011.4977
0467 1419826171 1006.0327
0468 1419830078 1006.7097
0469 1419833984 1007.4349
0470 1419837890 1006.5786
0471 1419841796 1007.3480
0472 1419845703 1002.5568
0473 1419849609 1001.5918
0474 1419853515 1000.8969
0475 1419857421 1001.8649
0476 1419861328 999.7114
0477 1419865234 998.6719
0478 1419869140 998.9587
0479 1419873046 999.3234
0480 1419876953 1001.1557
0481 1419880859 1000.6077
0482 1419884765 999.0294
0483 1419888671 995.8397
0484 1419892578 995.2158
0485 1419896484 991.8677
0486 1419900390 992.8281
0487 1419904296 998.7635
0488 1419908203 993.8101
0489 1419912109 996.2652
0490 1419916015 990.4658
0491 1419919921 992.9644
0492 1419923828 990.2719
0493 1419927734 989.4799
0494 1419931640 989.1102
0495 1419935546 987.7841
0496 1419939453 990.3066
0497 1419943359 991.4351
0498 1419947265 991.2936
0499 1419951171 989.3690
0500 1419955078 990.0912
0501 1419958984 987.6087
0502 1419962890 990.7761
0503 1419966796 991.6150
0504 1419970703 991.1660
0505 1419974609 988.7847
0506 1419978515 991.3873
0507 1419982421 988.9242
0508 1419986328 987.1411
0509 1419990234 989.5996
0510 1419994140 986.4362
0511 1419998046 990.9507
0512 1420001953 985.3047
0513 1420005859 989.8461
0514 1420009765 988.5458
0515 1420013671 990.3235
0516 1420017578 985.5950
0517 1420021484 986.7754
0518 1420025390 989.7834
0519 1420029296 991.1442
0520 1420033203 989.2593
0521 1420037109 987.8943
0522 1420041015 985.2849
0523 1420044921 989.7550
0524 1420048828 986.5142
0525 1420052734 992.4772
0526 1420056640 988.6141
0527 1420060546 983.7611
0528 1420064453 989.3636
0529 1420068359 991.3964
0530 1420072265 990.2885
0531 1420076171 988.9089
0532 1420080078 991.3247
0533 1420083984 987.4271
0534 1420087890 990.4298
0535 1420091796 987.3425
0536 1420095703 987.5724
0537 1420099609 991.7166
0538 1420103515 988.4679
0539 1420107421 994.2877
0540 1420111328 990.5699
0541 1420115234 988.3155
0542 1420119140 988.2001
0543 1420123046 990.0996
0544 1420126953 986.8895
0545 1420130859 994.3911
0546 1420134765 995.7578
0547 1420138671 992.3599
0548 1420142578 992.8967
0549 1420146484 992.6729
0550 1420150390 994.5583
0551 1420154296 993.9869
0552 1420158203 989.3884
0553 1420162109 991.1625
0554 1420166015 988.0111
0555 1420169921 991.9401
0556 1420173828 989.6354
0557 1420177734 993.3903
0558 1420181640 987.3501
0559 1420185546 991.7585
0560 1420189453 992.2512
0561 1420193359 987.3584
0562 1420197265 988.0749
0563 1420201171 988.2947
0564 1420205078 988.5351
0565 1420208984 990.8476
0566 1420212890 989.5204
0567 1420216796 989.9926
0568 1420220703 987.9789
0569 1420224609 984.9770
0570 1420228515 982.2364
0571 1420232421 983.1426
0572 1420236328 984.1243
0573 1420240234 982.7942
0574 1420244140 982.4570
0575 1420248046 983.3055
0576 1420251953 981.2683
0577 1420255859 982.3427
0578 1420259765 982.3578
0579 1420263671 983.6760
0580 1420267578 983.6474
0581 1420271484 978.8927
0582 1420275390 976.9695
0583 1420279296 978.9437
0584 1420283203 975.2939
0585 1420287109 977.3297
0586 1420291015 974.5793
0587 1420294921 977.8799
0588 1420298828 978.4736
0589 1420302734 973.8682
0590 1420306640 978.2843
0591 1420310546 974.5698
0592 1420314453 973.4116
0593 1420318359 972.0275
0594 1420322265 971.0715
0595 1420326171 973.3702
0596 1420330078 969.9214
0597 1420333984 973.1836
0598 1420337890 972.5687
0599 1420341796 966.2003
0600 1420345703 975.3487
0601 1420349609 971.2895
0602 1420353515 969.5518
0603 1420357421 969.0195
0604 1420361328 968.8749
0605 1420365234 969.8085
0606 1420369140 971.4559
0607 1420373046 967.8900
0608 1420376953 967.7612
0609 1420380859 967.0809
0610 1420384765 964.0241
0611 1420388671 966.5419
0612 1420392578 963.0276
0613 1420396484 964.4235
0614 1420400390 967.7365
0615 1420404296 961.5690
0616 1420408203 962.3079
0617 1420412109 959.7823
0618 1420416015 959.8221
0619 1420419921 954.7609
0620 1420423828 960.3977
0621 1420427734 961.6082
0622 1420431640 957.3660
0623 1420435546 959.0865
0624 1420439453 957.3238
0625 1420443359 958.2126
0626 1420447265 957.5504
0627 1420451171 955.1161
0628 1420455078 955.3830
0629 1420458984 954.2881
0630 1420462890 953.7645
0631 1420466796 956.4960
0632 1420470703 956.6770
0633 1420474609 952.5424
0634 1420478515 958.8386
0635 1420482421 955.9428
0636 1420486328 955.9404
0637 1420490234 956.3756
0638 1420494140 958.0844
0639 1420498046 955.4620
0640 1420501953 953.4395
0641 1420505859 951.4742
0642 1420509765 957.4204
0643 1420513671 952.1854
0644 1420517578 952.2040
0645 1420521484 954.6480
0646 1420525390 953.5416
0647 1420529296 956.4012
0648 1420533203 956.1193
0649 1420537109 959.3306
0650 1420541015 955.8693
0651 1420544921 954.7138
0652 1420548828 955.6141
0653 1420552734 953.2387
0654 1420556640 953.8818
0655 1420560546 958.3815
0656 1420564453 959.6835
0657 1420568359 956.6311
0658 1420572265 955.7388
0659 1420576171 960.5234
0660 1420580078 955.8760
0661 1420583984 955.1862
0662 1420587890 955.0469
0663 1420591796 958.4836
0664 1420595703 958.1970
0665 1420599609 955.9501
0666 1420603515 958.2764
0667 1420607421 956.4617
0668 1420611328 958.0099
0669 1420615234 958.1047
0670 1420619140 957.2656
0671 1420623046 957.1667
0672 1420626953 957.0900
0673 1420630859 958.3835
0674 1420634765 957.6254
0675 1420638671 955.8925
0676 1420642578 956.9422
0677 1420646484 951.8893
0678 1420650390 953.6471
0679 1420654296 954.2710
0680 1420658203 955.0231
0681 1420662109 955.9767
0682 1420666015 954.1654
0683 1420669921 958.7791
0684 1420673828 954.4862
0685 1420677734 951.8319
0686 1420681640 951.5270
0687 1420685546 950.5075
0688 1420689453 952.9547
0689 1420693359 954.3139
0690 1420697265 954.5663
0691 1420701171 952.2921
0692 1420705078 949.6724
0693 1420708984 951.9849
0694 1420712890 953.8442
0695 1420716796 952.8062
0696 1420720703 950.0292
0697 1420724609 949.2996
0698 1420728515 951.4340
0699 1420732421 949.2485
0700 1420736328 946.2017
0701 1420740234 946.6858
0702 1420744140 946.2321
0703 1420748046 946.3361
0704 1420751953 947.0029
0705 1420755859 944.5831
0706 1420759765 945.7842
0707 1420763671 943.7550
0708 1420767578 946.2132
0709 1420771484 944.8582
0710 1420775390 943.3881
0711 1420779296 945.8896
0712 1420783203 944.1480
0713 1420787109 939.2099
0714 1420791015 943.2904
0715 1420794921 941.3042
0716 1420798828 940.2108
0717 1420802734 942.9379
0718 1420806640 937.3457
0719 1420810546 936.3520
0720 1420814453 941.5911
0721 1420818359 936.5653
0722 1420822265 941.7261
0723 1420826171 937.9017
0724 1420830078 936.2613
0725 1420833984 937.0587
0726 1420837890 934.7372
0727 1420841796 940.1708
0728 1420845703 934.3359
0729 1420849609 933.5476
0730 1420853515 937.1096
0731 1420857421 937.1158
0732 1420861328 939.1584
0733 1420865234 935.8139
0734 1420869140 936.7543
0735 1420873046 936.4390
0736 1420876953 934.1935
0737 1420880859 936.6507
0738 1420884765 935.6252
0739 1420888671 933.5371
0740 1420892578 935.7808
0741 1420896484 938.6031
0742 1420900390 934.2346
0743 1420904296 934.7091
0744 1420908203 938.9288
0745 1420912109 937.0031
0746 1420916015 936.1244
0747 1420919921 942.4783
0748 1420923828 934.2883
0749 1420927734 935.4625
0750 1420931640 943.5588
0751 1420935546 944.0796
0752 1420939453 944.1876
0753 1420943359 940.1174
0754 1420947265 941.4794
0755 1420951171 943.8109
0756 1420955078 940.6520
0757 1420958984 943.3413
0758 1420962890 941.6654
0759 1420966796 944.9730
0760 1420970703 945.5987
0761 1420974609 943.5139
0762 1420978515 946.8698
0763 1420982421 949.4473
0764 1420986328 947.3040
0765 1420990234 950.8777
0766 1420994140 948.7340
0767 1420998046 951.9181
0768 1421001953 949.2280
0769 1421005859 953.5828
0770 1421009765 953.6427
0771 1421013671 951.7767
0772 1421017578 949.9067
0773 1421021484 954.1573
0774 1421025390 958.8010
0775 1421029296 956.5023
0776 1421033203 958.3508
0777 1421037109 960.7263
0778 1421041015 963.0067
0779 1421044921 960.1626
0780 1421048828 963.7816
0781 1421052734 961.9769
0782 1421056640 964.2023
0783 1421060546 966.8491
0784 1421064453 968.5619
0785 1421068359 966.3959
0786 1421072265 968.3351
0787 1421076171 970.6915
0788 1421080078 972.7313
0789 1421083984 974.1148
0790 1421087890 974.8373
0791 1421091796 976.5681
0792 1421095703 974.5493
0793 1421099609 976.8607
0794 1421103515 974.7368
0795 1421107421 974.1172
0796 1421111328 976.8292
0797 1421115234 973.0499
0798 1421119140 974.3029
0799 1421123046 980.1932
0800 1421126953 980.7996
0801 1421130859 978.4152
0802 1421134765 979.6287
0803 1421138671 984.0473
0804 1421142578 982.4775
0805 1421146484 982.0776
0806 1421150390 980.8214
0807 1421154296 983.5969
0808 1421158203 981.9684
0809 1421162109 982.3847
0810 1421166015 984.9039
0811 1421169921 985.2675
0812 1421173828 987.3329
0813 1421177734 985.5297
0814 1421181640 987.4763
0815 1421185546 988.2094
0816 1421189453 987.7218
0817 1421193359 986.5712
0818 1421197265 985.2446
0819 1421201171 984.4819
0820 1421205078 985.5715
0821 1421208984 983.4023
0822 1421212890 980.0891
0823 1421216796 986.8304
0824 1421220703 983.7688
0825 1421224609 985.2266
0826 1421228515 984.3702
0827 1421232421 979.9836
0828 1421236328 983.8397
0829 1421240234 984.4907
0830 1421244140 982.9426
0831 1421248046 983.8093
0832 1421251953 979.1602
0833 1421255859 978.6747
0834 1421259765 975.4257
0835 1421263671 976.7746
0836 1421267578 974.1676
0837 1421271484 977.9789
0838 1421275390 973.6893
0839 1421279296 971.7467
0840 1421283203 972.9058
0841 1421287109 970.2870
0842 1421291015 968.6249
0843 1421294921 971.7122
0844 1421298828 973.4299
0845 1421302734 966.0576
0846 1421306640 968.2783
0847 1421310546 969.9043
0848 1421314453 969.5259
0849 1421318359 966.5284
0850 1421322265 965.2842
0851 1421326171 966.3070
0852 1421330078 963.5336
0853 1421333984 960.3684
0854 1421337890 963.8099
0855 1421341796 962.9388
0856 1421345703 956.9954
0857 1421349609 958.8676
0858 1421353515 955.7383
0859 1421357421 956.6656
0860 1421361328 954.6527
0861 1421365234 953.9233
0862 1421369140 956.4792
0863 1421373046 954.5749
0864 1421376953 954.9116
0865 1421380859 949.3127
0866 1421384765 952.6932
0867 1421388671 951.8645
0868 1421392578 956.6568
0869 1421396484 952.6115
0870 1421400390 950.0461
0871 1421404296 949.4321
0872 1421408203 949.9112
0873 1421412109 948.8002
0874 1421416015 946.0507
0875 1421419921 949.6681
0876 1421423828 947.1412
0877 1421427734 952.3515
0878 1421431640 949.0150
0879 1421435546 953.6030
0880 1421439453 948.0247
0881 1421443359 952.7274
0882 1421447265 946.5825
0883 1421451171 948.8604
0884 1421455078 947.7375
0885 1421458984 947.9070
0886 1421462890 949.7189
0887 1421466796 951.1097
0888 1421470703 946.9500
0889 1421474609 949.2792
0890 1421478515 946.4149
0891 1421482421 952.7151
0892 1421486328 951.9971
0893 1421490234 955.4380
0894 1421494140 953.8260
0895 1421498046 950.4256
0896 1421501953 955.7744
0897 1421505859 955.2711
0898 1421509765 959.5276
0899 1421513671 958.2911
0900 1421517578 958.7587
0901 1421521484 959.3268
0902 1421525390 958.7438
0903 1421529296 962.8943
0904 1421533203 960.8477
0905 1421537109 960.1896
0906 1421541015 960.9889
0907 1421544921 962.3131
0908 1421548828 965.6807
0909 1421552734 969.5709
0910 1421556640 965.5184
0911 1421560546 967.0730
0912 1421564453 967.3688
0913 1421568359 973.5692
0914 1421572265 969.8596
0915 1421576171 975.4110
0916 1421580078 975.2717
0917 1421583984 981.5331
0918 1421587890 979.3210
0919 1421591796 978.1381
0920 1421595703 981.0919
0921 1421599609 981.9592
0922 1421603515 983.2609
0923 1421607421 984.5430
0924 1421611328 985.5001
0925 1421615234 984.4343
0926 1421619140 987.5892
0927 1421623046 990.6645
0928 1421626953 993.4019
0929 1421630859 992.0056
0930 1421634765 989.3380
0931 1421638671 992.2329
0932 1421642578 995.4971
0933 1421646484 995.0853
0934 1421650390 995.9630
0935 1421654296 993.3134
0936 1421658203 993.3707
0937 1421662109 999.7428
0938 1421666015 1001.7873
0939 1421669921 996.0990
0940 1421673828 1000.0296
0941 1421677734 999.8021
0942 1421681640 1000.5081
0943 1421685546 997.1084
0944 1421689453 1004.0331
0945 1421693359 1003.1913
0946 1421697265 1004.7499
0947 1421701171 1005.9047
0948 1421705078 1008.7191
0949 1421708984 1008.4431
0950 1421712890 1003.4860
0951 1421716796 1006.9532
0952 1421720703 999.3471
0953 1421724609 1005.1293
0954 1421728515 1006.5019
0955 1421732421 1004.9594
0956 1421736328 1004.1895
0957 1421740234 1006.7419
0958 1421744140 1005.9147
0959 1421748046 1006.5355
0960 1421751953 1005.0266
0961 1421755859 1002.4503
0962 1421759765 1003.0571
0963 1421763671 1006.0997
0964 1421767578 1001.8127
0965 1421771484 998.3362
0966 1421775390 998.4918
0967 1421779296 999.4819
0968 1421783203 1001.7789
0969 1421787109 1001.4863
0970 1421791015 1000.8538
0971 1421794921 997.4178
0972 1421798828 995.1090
0973 1421802734 997.5050
0974 1421806640 995.7695
0975 1421810546 996.6937
0976 1421814453 990.5508
0977 1421818359 986.8590
0978 1421822265 988.3995
0979 1421826171 987.8384
0980 1421830078 983.3071
0981 1421833984 987.6512
0982 1421837890 984.8884
0983 1421841796 991.5823
0984 1421845703 983.6521
0985 1421849609 986.1550
0986 1421853515 980.9056
0987 1421857421 979.2083
0988 1421861328 980.7846
0989 1421865234 974.1764
0990 1421869140 975.4980
0991 1421873046 972.7526
0992 1421876953 975.9462
0993 1421880859 973.8381
0994 1421884765 973.4343
0995 1421888671 968.0769
0996 1421892578 969.3544
0997 1421896484 970.0330
0998 1421900390 968.3195
0999 1421904296 965.6971
1000 1421908203 965.6848
1001 1421912109 963.7941
1002 1421916015 962.3281
1003 1421919921 956.4269
1004 1421923828 959.2416
1005 1421927734 959.1672
1006 1421931640 958.8870
1007 1421935546 957.7859
1008 1421939453 954.3427
1009 1421943359 954.6015
1010 1421947265 951.6342
1011 1421951171 951.3866
1012 1421955078 953.4761
1013 1421958984 947.5952
1014 1421962890 952.0283
1015 1421966796 952.9713
1016 1421970703 951.9562
1017 1421974609 954.2027
1018 1421978515 948.9209
1019 1421982421 950.4978
1020 1421986328 953.2982
1021 1421990234 952.4489
1022 1421994140 956.4014
1023 1421998046 987.6608
1024 1422001953 1065.8195
1025 1422005859 989.5316
1026 1422009765 957.5553
1027 1422013671 953.3997
1028 1422017578 951.8522
1029 1422021484 953.4470
1030 1422025390 950.7917
1031 1422029296 948.9552
1032 1422033203 950.5474
1033 1422037109 953.5593
1034 1422041015 954.4142
1035 1422044921 954.7859
1036 1422048828 954.1520
1037 1422052734 954.8481
1038 1422056640 953.5139
1039 1422060546 954.8128
1040 1422064453 949.6323
1041 1422068359 952.9799
1042 1422072265 954.6124
1043 1422076171 955.6884
1044 1422080078 955.0975
1045 1422083984 960.0331
1046 1422087890 956.4017
1047 1422091796 954.7667
1048 1422095703 960.6946
1049 1422099609 961.9963
1050 1422103515 958.6882
1051 1422107421 961.2026
1052 1422111328 962.4989
1053 1422115234 965.5557
1054 1422119140 966.0378
1055 1422123046 967.3965
1056 1422126953 970.0120
1057 1422130859 969.7397
1058 1422134765 970.3679
1059 1422138671 970.1562
1060 1422142578 971.0150
1061 1422146484 975.2178
1062 1422150390 976.9632
1063 1422154296 973.4059
1064 1422158203 975.7236
1065 1422162109 973.8903
1066 1422166015 977.8951
1067 1422169921 979.4275
1068 1422173828 978.9013
1069 1422177734 983.0177
1070 1422181640 983.7126
1071 1422185546 983.1243
1072 1422189453 983.6658
1073 1422193359 987.2670
1074 1422197265 989.8571
1075 1422201171 987.1237
1076 1422205078 987.7610
1077 1422208984 987.7536
1078 1422212890 986.0524
1079 1422216796 989.6906
1080 1422220703 991.8630
1081 1422224609 991.7653
1082 1422228515 991.5565
1083 1422232421 989.5988
1084 1422236328 993.2914
1085 1422240234 997.8978
1086 1422244140 990.7853
1087 1422248046 991.4728
1088 1422251953 993.4250
1089 1422255859 992.3759
1090 1422259765 994.2897
1091 1422263671 995.7151
1092 1422267578 993.8340
1093 1422271484 999.5078
1094 1422275390 996.2714
1095 1422279296 995.3480
1096 1422283203 998.7062
1097 1422287109 995.3915
1098 1422291015 996.4453
1099 1422294921 994.6862
1100 1422298828 997.2197
1101 1422302734 990.0690
1102 1422306640 994.3463
1103 1422310546 993.2703
1104 1422314453 989.7522
1105 1422318359 990.0472
1106 1422322265 991.1335
1107 1422326171 989.0307
1108 1422330078 986.2344
1109 1422333984 987.4922
1110 1422337890 985.3500
1111 1422341796 989.3697
1112 1422345703 984.6975
1113 1422349609 982.4675
1114 1422353515 982.4975
1115 1422357421 983.2340
1116 1422361328 982.8372
1117 1422365234 980.6859
1118 1422369140 981.8625
1119 1422373046 976.8065
1120 1422376953 974.7596
1121 1422380859 975.7870
1122 1422384765 977.3875
1123 1422388671 976.9058
1124 1422392578 974.3626
1125 1422396484 975.3969
1126 1422400390 969.5933
1127 1422404296 971.7175
1128 1422408203 968.2841
1129 1422412109 963.7637
1130 1422416015 964.4665
1131 1422419921 962.7825
1132 1422423828 959.8459
1133 1422427734 962.1263
1134 1422431640 962.4069
1135 1422435546 957.5759
1136 1422439453 958.5538
1137 1422443359 958.2106
1138 1422447265 954.3502
1139 1422451171 954.9103
1140 1422455078 950.5400
1141 1422458984 951.3898
1142 1422462890 951.7889
1143 1422466796 947.7607
1144 1422470703 948.1691
1145 1422474609 944.7480
1146 1422478515 947.4833
1147 1422482421 948.7633
1148 1422486328 944.1301
1149 1422490234 942.7835
1150 1422494140 939.9922
1151 1422498046 939.5763
1152 1422501953 941.9209
1153 1422505859 940.5505
1154 1422509765 938.1228
1155 1422513671 937.0360
1156 1422517578 938.7817
1157 1422521484 933.8118
1158 1422525390 940.5778
1159 1422529296 936.9681
1160 1422533203 935.2867
1161 1422537109 936.6096
1162 1422541015 934.8115
1163 1422544921 935.3510
1164 1422548828 935.4444
1165 1422552734 934.2078
1166 1422556640 932.7770
1167 1422560546 937.7191
1168 1422564453 934.0215
1169 1422568359 935.9844
1170 1422572265 937.8429
1171 1422576171 936.2293
1172 1422580078 934.5509
1173 1422583984 934.6609
1174 1422587890 936.9791
1175 1422591796 938.6035
1176 1422595703 938.3448
1177 1422599609 933.1741
1178 1422603515 930.0800
1179 1422607421 935.0107
1180 1422611328 937.9261
1181 1422615234 938.8805
1182 1422619140 941.2904
1183 1422623046 940.6017
1184 1422626953 941.9666
1185 1422630859 943.6169
1186 1422634765 940.8626
1187 1422638671 942.3082
1188 1422642578 946.5390
1189 1422646484 941.7286
1190 1422650390 946.2603
1191 1422654296 944.0195
1192 1422658203 942.0048
1193 1422662109 943.3353
1194 1422666015 946.6675
1195 1422669921 947.2110
1196 1422673828 946.4750
1197 1422677734 946.2056
1198 1422681640 952.3345
1199 1422685546 949.9139
1200 1422689453 951.1208
1201 1422693359 951.3613
1202 1422697265 953.2829
1203 1422701171 955.9629
1204 1422705078 953.6457
1205 1422708984 958.2418
1206 1422712890 954.3170
1207 1422716796 956.9553
1208 1422720703 962.1168
1209 1422724609 961.7721
1210 1422728515 960.5701
1211 1422732421 961.6992
1212 1422736328 962.4474
1213 1422740234 960.0576
1214 1422744140 963.0517
1215 1422748046 960.2350
1216 1422751953 965.7330
1217 1422755859 964.6539
1218 1422759765 964.0637
1219 1422763671 967.0624
1220 1422767578 968.9208
1221 1422771484 965.0900
1222 1422775390 968.5742
1223 1422779296 963.5054
1224 1422783203 967.6586
1225 1422787109 970.7499
1226 1422791015 968.0536
1227 1422794921 973.8842
1228 1422798828 970.7286
1229 1422802734 967.9536
1230 1422806640 971.7759
1231 1422810546 972.1768
1232 1422814453 967.4284
1233 1422818359 970.6888
1234 1422822265 970.1225
1235 1422826171 969.9369
1236 1422830078 965.7389
1237 1422833984 966.2991
1238 1422837890 969.3043
1239 1422841796 974.3560
1240 1422845703 973.1978
1241 1422849609 968.1221
1242 1422853515 968.3453
1243 1422857421 969.0671
1244 1422861328 968.2316
1245 1422865234 966.9538
1246 1422869140 967.0513
1247 1422873046 965.0779
1248 1422876953 963.4911
1249 1422880859 966.4070
1250 1422884765 964.7101
1251 1422888671 963.9607
1252 1422892578 963.9859
1253 1422896484 962.6489
1254 1422900390 961.5242
1255 1422904296 960.7400
1256 1422908203 960.5549
1257 1422912109 963.2870
1258 1422916015 960.0825
1259 1422919921 954.7794
1260 1422923828 956.6911
1261 1422927734 956.1201
1262 1422931640 956.8821
1263 1422935546 953.5110
1264 1422939453 956.0601
1265 1422943359 949.8522
1266 1422947265 952.3573
1267 1422951171 950.5710
1268 1422955078 946.7769
1269 1422958984 951.5057
1270 1422962890 949.8210
1271 1422966796 945.1049
1272 1422970703 948.5820
1273 1422974609 942.7396
1274 1422978515 936.9200
1275 1422982421 941.7988
1276 1422986328 941.8253
1277 1422990234 937.8516
1278 1422994140 938.0748
1279 1422998046 937.7437
1280 1423001953 936.8281
1281 1423005859 937.9817
1282 1423009765 937.9744
1283 1423013671 934.3217
1284 1423017578 931.2120
1285 1423021484 932.3748
1286 1423025390 934.4497
1287 1423029296 932.3788
1288 1423033203 933.0309
1289 1423037109 930.8925
1290 1423041015 932.6494
1291 1423044921 929.3951
1292 1423048828 926.1967
1293 1423052734 926.0559
1294 1423056640 921.4456
1295 1423060546 926.7548
1296 1423064453 927.0211
1297 1423068359 927.4262
1298 1423072265 922.2942
1299 1423076171 924.8692
1300 1423080078 921.9897
1301 1423083984 920.2614
1302 1423087890 922.6340
1303 1423091796 921.9434
1304 1423095703 926.3226
1305 1423099609 922.4046
1306 1423103515 922.9333
1307 1423107421 923.5173
1308 1423111328 920.9592
1309 1423115234 922.9103
1310 1423119140 921.1831
1311 1423123046 917.3250
1312 1423126953 920.1219
1313 1423130859 922.6952
1314 1423134765 919.8718
1315 1423138671 918.7332
1316 1423142578 920.7463
1317 1423146484 920.3415
1318 1423150390 921.8394
1319 1423154296 921.7990
1320 1423158203 921.1298
1321 1423162109 922.6521
1322 1423166015 921.8552
1323 1423169921 917.7856
1324 1423173828 922.7176
1325 1423177734 926.9861
1326 1423181640 923.6216
1327 1423185546 920.7014
1328 1423189453 922.9313
1329 1423193359 922.5953
1330 1423197265 922.4383
1331 1423201171 923.6547
1332 1423205078 927.3514
1333 1423208984 921.9783
1334 1423212890 925.5028
1335 1423216796 924.0915
1336 1423220703 925.0989
1337 1423224609 925.4421
1338 1423228515 926.6470
1339 1423232421 927.5079
1340 1423236328 928.6989
1341 1423240234 926.3511
1342 1423244140 925.6037
1343 1423248046 928.0770
1344 1423251953 931.1430
1345 1423255859 927.3900
1346 1423259765 928.3074
1347 1423263671 931.2864
1348 1423267578 932.7040
1349 1423271484 930.0610
1350 1423275390 930.9882
1351 1423279296 930.7634
1352 1423283203 931.9699
1353 1423287109 931.1006
1354 1423291015 932.2032
1355 1423294921 931.7786
1356 1423298828 932.2405
1357 1423302734 932.5909
1358 1423306640 933.8990
1359 1423310546 934.9760
1360 1423314453 933.8851
1361 1423318359 932.7402
1362 1423322265 931.5546
1363 1423326171 933.9086
1364 1423330078 932.7541
1365 1423333984 933.0707
1366 1423337890 933.2962
1367 1423341796 933.3593
1368 1423345703 936.8276
1369 1423349609 935.9255
1370 1423353515 941.1275
1371 1423357421 939.9543
1372 1423361328 936.2935
1373 1423365234 933.5038
1374 1423369140 933.6453
1375 1423373046 931.7122
1376 1423376953 933.2963
1377 1423380859 931.3077
1378 1423384765 933.7430
1379 1423388671 935.3607
1380 1423392578 935.5151
1381 1423396484 936.8305
1382 1423400390 938.0009
1383 1423404296 936.3301
1384 1423408203 937.1246
1385 1423412109 934.4618
1386 1423416015 932.8970
1387 1423419921 932.4768
1388 1423423828 935.4973
1389 1423427734 936.2013
1390 1423431640 935.8870
1391 1423435546 932.8045
1392 1423439453 934.4377
1393 1423443359 934.1291
1394 1423447265 935.1869
1395 1423451171 931.6873
1396 1423455078 933.9044
1397 1423458984 936.1255
1398 1423462890 931.5616
1399 1423466796 931.4141
1400 1423470703 930.6920
1401 1423474609 933.7332
1402 1423478515 935.2295
1403 1423482421 932.9163
1404 1423486328 933.4113
1405 1423490234 932.6176
1406 1423494140 933.2286
1407 1423498046 932.3108
1408 1423501953 933.2096
1409 1423505859 936.1743
1410 1423509765 933.1700
1411 1423513671 929.0516
1412 1423517578 930.6466
1413 1423521484 934.2037
1414 1423525390 929.6794
1415 1423529296 931.0857
1416 1423533203 931.2701
1417 1423537109 933.9113
1418 1423541015 934.2535
1419 1423544921 932.6465
1420 1423548828 933.7893
1421 1423552734 930.4699
1422 1423556640 935.5450
1423 1423560546 932.7437
1424 1423564453 934.1095
1425 1423568359 931.9504
1426 1423572265 930.9756
1427 1423576171 935.3776
1428 1423580078 934.9386
1429 1423583984 937.1157
1430 1423587890 936.5214
1431 1423591796 934.6059
1432 1423595703 930.0141
1433 1423599609 936.4584
1434 1423603515 932.5252
1435 1423607421 930.5231
1436 1423611328 932.5145
1437 1423615234 937.3460
1438 1423619140 937.6431
1439 1423623046 935.0080
1440 1423626953 937.3273
1441 1423630859 932.6723
1442 1423634765 937.7393
1443 1423638671 936.6484
1444 1423642578 939.6691
1445 1423646484 938.3127
1446 1423650390 936.7189
1447 1423654296 940.5867
1448 1423658203 939.9121
1449 1423662109 940.7958
1450 1423666015 939.9621
1451 1423669921 939.3392
1452 1423673828 942.4079
1453 1423677734 944.8807
1454 1423681640 941.3558
1455 1423685546 944.8028
1456 1423689453 943.8861
1457 1423693359 942.9822
1458 1423697265 945.1368
1459 1423701171 944.6879
1460 1423705078 947.9615
1461 1423708984 946.6282
1462 1423712890 946.0726
1463 1423716796 944.3087
1464 1423720703 944.3071
1465 1423724609 942.7024
1466 1423728515 947.0936
1467 1423732421 947.6990
1468 1423736328 947.1937
1469 1423740234 952.6641
1470 1423744140 950.7210
1471 1423748046 949.7074
1472 1423751953 954.6358
1473 1423755859 948.7902
1474 1423759765 953.4155
1475 1423763671 954.5848
1476 1423767578 954.9688
1477 1423771484 956.1923
1478 1423775390 955.1339
1479 1423779296 956.8571
1480 1423783203 954.6789
1481 1423787109 952.9587
1482 1423791015 958.8088
1483 1423794921 955.3185
1484 1423798828 957.7092
1485 1423802734 958.1145
1486 1423806640 958.2394
1487 1423810546 957.9494
1488 1423814453 961.1504
1489 1423818359 962.3217
1490 1423822265 961.8443
1491 1423826171 961.9973
1492 1423830078 961.5791
1493 1423833984 959.6677
1494 1423837890 956.6443
1495 1423841796 958.9944
1496 1423845703 960.0731
1497 1423849609 966.4713
1498 1423853515 958.5840
1499 1423857421 961.0559
1500 1423861328 961.8246
1501 1423865234 958.3331
1502 1423869140 961.3205
1503 1423873046 960.2141
1504 1423876953 962.0765
1505 1423880859 960.9229
1506 1423884765 960.0516
1507 1423888671 960.0917
1508 1423892578 960.7370
1509 1423896484 957.5439
1510 1423900390 961.1844
1511 1423904296 962.9562
1512 1423908203 963.9360
1513 1423912109 960.6966
1514 1423916015 960.6332
1515 1423919921 956.2227
1516 1423923828 959.1396
1517 1423927734 958.5322
1518 1423931640 956.9842
1519 1423935546 960.9748
1520 1423939453 959.4954
1521 1423943359 956.9373
1522 1423947265 956.7687
1523 1423951171 959.2993
1524 1423955078 959.3449
1525 1423958984 958.9013
1526 1423962890 956.7382
1527 1423966796 959.0073
1528 1423970703 955.6150
1529 1423974609 957.0539
1530 1423978515 955.7822
1531 1423982421 952.8312
1532 1423986328 957.3480
1533 1423990234 955.5301
1534 1423994140 954.2649
1535 1423998046 956.8010
1536 1424001953 962.7723
1537 1424005859 955.1677
1538 1424009765 957.8581
1539 1424013671 959.6540
1540 1424017578 957.1630
1541 1424021484 956.0699
1542 1424025390 960.6655
1543 1424029296 958.3848
1544 1424033203 955.5186
1545 1424037109 955.1416
1546 1424041015 955.8729
1547 1424044921 955.9503
1548 1424048828 957.2441
1549 1424052734 954.4128
1550 1424056640 959.3203
1551 1424060546 953.2273
1552 1424064453 952.2436
1553 1424068359 956.3514
1554 1424072265 957.0717
1555 1424076171 960.0738
1556 1424080078 954.8541
1557 1424083984 957.8751
1558 1424087890 957.4235
1559 1424091796 958.9977
1560 1424095703 958.2923
1561 1424099609 958.6466
1562 1424103515 958.9850
1563 1424107421 963.3524
1564 1424111328 958.1697
1565 1424115234 960.7255
1566 1424119140 960.7784
1567 1424123046 961.0463
1568 1424126953 962.9364
1569 1424130859 963.0845
1570 1424134765 960.8207
1571 1424138671 963.0723
1572 1424142578 964.3122
1573 1424146484 964.9119
1574 1424150390 966.7272
1575 1424154296 967.8002
1576 1424158203 966.3426
1577 1424162109 963.5252
1578 1424166015 968.5846
1579 1424169921 973.4771
1580 1424173828 968.2072
1581 1424177734 973.0958
1582 1424181640 974.4972
1583 1424185546 972.4755
1584 1424189453 970.7932
1585 1424193359 973.3077
1586 1424197265 973.6904
1587 1424201171 972.6379
1588 1424205078 979.5999
1589 1424208984 978.2659
1590 1424212890 980.3489
1591 1424216796 976.8591
1592 1424220703 980.7267
1593 1424224609 980.6252
1594 1424228515 980.7111
1595 1424232421 979.4560
1596 1424236328 980.6113
1597 1424240234 984.6161
1598 1424244140 986.8715
1599 1424248046 981.6700
1600 1424251953 984.1516
1601 1424255859 986.2120
1602 1424259765 984.6381
1603 1424263671 988.1510
1604 1424267578 992.0780
1605 1424271484 991.8476
1606 1424275390 992.2947
1607 1424279296 989.1663
1608 1424283203 991.8666
1609 1424287109 992.3305
1610 1424291015 993.1647
1611 1424294921 997.2411
1612 1424298828 994.0262
1613 1424302734 993.9427
1614 1424306640 996.9957
1615 1424310546 995.3489
1616 1424314453 996.2665
1617 1424318359 994.2661
1618 1424322265 993.2673
1619 1424326171 996.3279
1620 1424330078 999.9933
1621 1424333984 993.6110
1622 1424337890 999.3345
1623 1424341796 1003.7283
1624 1424345703 998.5706
1625 1424349609 999.7354
1626 1424353515 1000.1338
1627 1424357421 1000.1038
1628 1424361328 999.6634
1629 1424365234 1000.5366
1630 1424369140 1001.1231
1631 1424373046 999.4313
1632 1424376953 996.1031
1633 1424380859 998.3806
1634 1424384765 996.0256
1635 1424388671 1000.9742
1636 1424392578 1000.6019
1637 1424396484 998.6545
1638 1424400390 1001.5881
1639 1424404296 1003.8211
1640 1424408203 1001.5647
1641 1424412109 997.5356
1642 1424416015 998.7940
1643 1424419921 1002.8261
1644 1424423828 1004.3115
1645 1424427734 1002.8347
1646 1424431640 1000.7883
1647 1424435546 1002.8156
1648 1424439453 1000.1672
1649 1424443359 1000.7394
1650 1424447265 999.3046
1651 1424451171 1001.4202
1652 1424455078 1000.0864
1653 1424458984 996.8156
1654 1424462890 997.3110
1655 1424466796 997.0120
1656 1424470703 1002.5676
1657 1424474609 1001.1016
1658 1424478515 1001.5812
1659 1424482421 1002.9127
1660 1424486328 998.5024
1661 1424490234 999.0205
1662 1424494140 994.2376
1663 1424498046 999.7211
1664 1424501953 1000.8835
1665 1424505859 998.1728
1666 1424509765 997.7604
1667 1424513671 998.6757
1668 1424517578 998.6399
1669 1424521484 996.4595
1670 1424525390 995.8342
1671 1424529296 997.5129
1672 1424533203 999.4523
1673 1424537109 1000.4766
1674 1424541015 996.0159
1675 1424544921 999.3958
1676 1424548828 996.0108
1677 1424552734 997.6667
1678 1424556640 994.8829
1679 1424560546 995.5591
1680 1424564453 998.4827
1681 1424568359 996.5306
1682 1424572265 999.3648
1683 1424576171 992.4166
1684 1424580078 995.2448
1685 1424583984 992.4174
1686 1424587890 994.3528
1687 1424591796 996.5280
1688 1424595703 994.6805
1689 1424599609 994.7744
1690 1424603515 995.1582
1691 1424607421 991.6053
1692 1424611328 991.6463
1693 1424615234 993.5874
1694 1424619140 990.0604
1695 1424623046 989.3530
1696 1424626953 994.4779
1697 1424630859 990.3423
1698 1424634765 990.0654
1699 1424638671 986.5347
1700 1424642578 989.2028
1701 1424646484 990.9770
1702 1424650390 991.3332
1703 1424654296 989.8208
1704 1424658203 991.8812
1705 1424662109 985.8113
1706 1424666015 990.0967
1707 1424669921 986.8555
1708 1424673828 985.0298
1709 1424677734 990.3027
1710 1424681640 986.1599
1711 1424685546 984.7619
1712 1424689453 985.3800
1713 1424693359 983.5682
1714 1424697265 985.0077
1715 1424701171 985.3245
1716 1424705078 980.8979
1717 1424708984 982.6680
1718 1424712890 981.0010
1719 1424716796 981.8928
1720 1424720703 979.6622
1721 1424724609 980.7356
1722 1424728515 980.4034
1723 1424732421 974.7964
1724 1424736328 977.0881
1725 1424740234 975.2480
1726 1424744140 974.4857
1727 1424748046 971.9402
1728 1424751953 975.2533
1729 1424755859 974.6974
1730 1424759765 972.9630
1731 1424763671 968.6929
1732 1424767578 971.6000
1733 1424771484 969.2054
1734 1424775390 968.8600
1735 1424779296 966.5709
1736 1424783203 964.0234
1737 1424787109 961.1392
1738 1424791015 961.1323
1739 1424794921 959.7758
1740 1424798828 960.6082
1741 1424802734 963.6673
1742 1424806640 959.1525
1743 1424810546 956.0461
1744 1424814453 956.7963
1745 1424818359 951.8909
1746 1424822265 952.6907
1747 1424826171 948.1918
1748 1424830078 949.6180
1749 1424833984 945.8453
1750 1424837890 943.4070
1751 1424841796 945.7386
1752 1424845703 942.5670
1753 1424849609 942.6650
1754 1424853515 939.4005
1755 1424857421 937.2459
1756 1424861328 937.1378
1757 1424865234 936.4373
1758 1424869140 934.0268
1759 1424873046 933.7334
1760 1424876953 933.3087
1761 1424880859 933.2212
1762 1424884765 928.9602
1763 1424888671 929.5699
1764 1424892578 931.0168
1765 1424896484 925.9622
1766 1424900390 926.4786
1767 1424904296 923.8687
1768 1424908203 924.3531
1769 1424912109 918.7128
1770 1424916015 919.7840
1771 1424919921 918.3392
1772 1424923828 916.6745
1773 1424927734 918.2922
1774 1424931640 918.2846
1775 1424935546 916.6879
1776 1424939453 917.5353
1777 1424943359 915.1821
1778 1424947265 909.3646
1779 1424951171 913.8482
1780 1424955078 916.3823
1781 1424958984 914.8565
1782 1424962890 913.6442
1783 1424966796 915.0839
1784 1424970703 915.9381
1785 1424974609 913.2809
1786 1424978515 910.4888
1787 1424982421 912.7922
1788 1424986328 911.0715
1789 1424990234 914.6347
1790 1424994140 914.3737
1791 1424998046 914.0919
1792 1425001953 924.3182
1793 1425005859 963.4146
1794 1425009765 964.3876
1795 1425013671 916.4569
1796 1425017578 917.6930
1797 1425021484 920.5760
1798 1425025390 922.8447
1799 1425029296 920.6061
1800 1425033203 923.4227
1801 1425037109 922.4667
1802 1425041015 926.0121
1803 1425044921 926.3190
1804 1425048828 925.5563
1805 1425052734 931.1497
1806 1425056640 934.0825
1807 1425060546 938.3148
1808 1425064453 935.6339
1809 1425068359 939.0267
1810 1425072265 942.8113
1811 1425076171 942.0001
1812 1425080078 946.6974
1813 1425083984 951.5446
1814 1425087890 950.8098
1815 1425091796 950.0552
1816 1425095703 957.5233
1817 1425099609 958.0397
1818 1425103515 963.2788
1819 1425107421 963.7048
1820 1425111328 968.1956
1821 1425115234 966.1404
1822 1425119140 970.2368
1823 1425123046 981.7210
1824 1425126953 977.2183
1825 1425130859 981.6774
1826 1425134765 986.1695
1827 1425138671 986.7374
1828 1425142578 988.3146
1829 1425146484 995.6674
1830 1425150390 995.4926
1831 1425154296 999.9398
1832 1425158203 999.7031
1833 1425162109 1004.5682
1834 1425166015 1007.9264
1835 1425169921 1007.3118
1836 1425173828 1010.0309
1837 1425177734 1017.1590
1838 1425181640 1018.7083
1839 1425185546 1018.6228
1840 1425189453 1026.7195
1841 1425193359 1028.9292
1842 1425197265 1029.7100
1843 1425201171 1031.5286
1844 1425205078 1029.6548
1845 1425208984 1030.5530
1846 1425212890 1037.1624
1847 1425216796 1034.9323
1848 1425220703 1038.6569
1849 1425224609 1036.4323
1850 1425228515 1035.7747
1851 1425232421 1035.0841
1852 1425236328 1037.9845
1853 1425240234 1035.7633
1854 1425244140 1036.1266
1855 1425248046 1040.4792
1856 1425251953 1035.8759
1857 1425255859 1033.3508
1858 1425259765 1039.3009
1859 1425263671 1037.5690
1860 1425267578 1035.4640
1861 1425271484 1029.1163
1862 1425275390 1026.7819
1863 1425279296 1025.9927
1864 1425283203 1022.8167
1865 1425287109 1021.4651
1866 1425291015 1014.7600
1867 1425294921 1012.9589
1868 1425298828 1005.7001
1869 1425302734 999.0075
1870 1425306640 996.2532
1871 1425310546 994.3834
1872 1425314453 986.0462
1873 1425318359 980.6200
1874 1425322265 977.0715
1875 1425326171 964.6033
1876 1425330078 959.6505
1877 1425333984 951.2028
1878 1425337890 940.8244
1879 1425341796 935.9855
1880 1425345703 927.0760
1881 1425349609 919.7808
1882 1425353515 908.7468
1883 1425357421 896.5842
1884 1425361328 885.9858
1885 1425365234 874.7482
1886 1425369140 864.3270
1887 1425373046 852.1485
1888 1425376953 843.5892
1889 1425380859 829.7466
1890 1425384765 817.0577
1891 1425388671 809.3536
1892 1425392578 796.6328
1893 1425396484 780.0845
1894 1425400390 765.5416
1895 1425404296 752.3974
1896 1425408203 743.2654
1897 1425412109 729.0753
1898 1425416015 711.1343
1899 1425419921 699.0590
1900 1425423828 683.2612
1901 1425427734 669.0928
1902 1425431640 654.9391
1903 1425435546 638.4758
1904 1425439453 621.1574
1905 1425443359 606.3713
1906 1425447265 593.2195
1907 1425451171 577.3321
1908 1425455078 563.6369
1909 1425458984 546.9890
1910 1425462890 534.2986
1911 1425466796 516.5128
1912 1425470703 504.6356
1913 1425474609 488.7310
1914 1425478515 472.7528
1915 1425482421 459.3604
1916 1425486328 442.3395
1917 1425490234 427.4529
1918 1425494140 412.1713
1919 1425498046 397.5574
1920 1425501953 383.4027
1921 1425505859 369.9495
1922 1425509765 355.2054
1923 1425513671 342.7521
1924 1425517578 330.0578
1925 1425521484 314.9706
1926 1425525390 303.5725
1927 1425529296 290.5618
1928 1425533203 276.4020
1929 1425537109 264.0317
1930 1425541015 252.4940
1931 1425544921 241.1254
1932 1425548828 229.8483
1933 1425552734 218.4814
1934 1425556640 207.8051
1935 1425560546 197.1338
1936 1425564453 186.1371
1937 1425568359 176.6025
1938 1425572265 167.5059
1939 1425576171 159.0257
1940 1425580078 148.8093
1941 1425583984 139.9449
1942 1425587890 131.7545
1943 1425591796 124.1163
1944 1425595703 116.4665
1945 1425599609 109.5147
1946 1425603515 102.4531
1947 1425607421 95.5383
1948 1425611328 89.0590
1949 1425615234 82.6285
1950 1425619140 76.9464
1951 1425623046 71.4730
1952 1425626953 66.3100
1953 1425630859 61.3447
1954 1425634765 56.5298
1955 1425638671 52.1762
1956 1425642578 48.0458
1957 1425646484 44.1976
1958 1425650390 40.4426
1959 1425654296 37.1032
1960 1425658203 33.9216
1961 1425662109 30.7160
1962 1425666015 28.0242
1963 1425669921 25.2365
1964 1425673828 22.9140
1965 1425677734 20.6422
1966 1425681640 18.4851
1967 1425685546 16.6173
1968 1425689453 14.8008
1969 1425693359 13.1374
1970 1425697265 11.6643
1971 1425701171 10.3152
1972 1425705078 9.0760
1973 1425708984 8.0016
1974 1425712890 6.9361
1975 1425716796 6.0341
1976 1425720703 5.1967
1977 1425724609 4.4655
1978 1425728515 3.8200
1979 1425732421 3.2307
1980 1425736328 2.7025
1981 1425740234 2.2498
1982 1425744140 1.8524
1983 1425748046 1.5105
1984 1425751953 1.2127
1985 1425755859 0.9613
1986 1425759765 0.7483
1987 1425763671 0.5706
1988 1425767578 0.4251
1989 1425771484 0.3069
1990 1425775390 0.2140
1991 1425779296 0.1437
1992 1425783203 0.0927
1993 1425787109 0.0584
1994 1425791015 0.0388
1995 1425794921 0.0320
1996 1425798828 0.0357
1997 1425802734 0.0483
1998 1425806640 0.0683
1999 1425810546 0.0941
2000 1425814453 0.1253
2001 1425818359 0.1589
2002 1425822265 0.1954
2003 1425826171 0.2337
2004 1425830078 0.2747
2005 1425833984 0.3143
2006 1425837890 0.3543
2007 1425841796 0.3934
2008 1425845703 0.4313
2009 1425849609 0.4687
2010 1425853515 0.5041
2011 1425857421 0.5382
2012 1425861328 0.5710
2013 1425865234 0.5985
2014 1425869140 0.6265
2015 1425873046 0.6526
2016 1425876953 0.6769
2017 1425880859 0.6961
2018 1425884765 0.7153
2019 1425888671 0.7314
2020 1425892578 0.7478
2021 1425896484 0.7617
2022 1425900390 0.7741
2023 1425904296 0.7811
2024 1425908203 0.7915
2025 1425912109 0.8009
2026 1425916015 0.8078
2027 1425919921 0.8104
2028 1425923828 0.8144
2029 1425927734 0.8178
2030 1425931640 0.8211
2031 1425935546 0.8236
2032 1425939453 0.8266
2033 1425943359 0.8221
2034 1425947265 0.8236
2035 1425951171 0.8241
2036 1425955078 0.8224
2037 1425958984 0.8237
2038 1425962890 0.8195
2039 1425966796 0.8217
2040 1425970703 0.8233
2041 1425974609 0.8198
2042 1425978515 0.8195
2043 1425982421 0.8190
2044 1425986328 0.8212
2045 1425990234 0.8180
2046 1425994140 0.8204
2047 1425998046 0.8201
