# File: 20-11-28T182121.hot
# NOTEA     = RSP1A+GPIOLabs Pi #1 On Horn
# NOTEB     = Sdrplay 8 MHz Test
# OBSERVER  = Science Aficionado
# DEVICE    = SDRPlay RSP1A
# DATADIR   = ../data/
# SITE      = RSP1A+GPIOLabs Pi #1 On Horn
# CITY      = Green Bank
# REGION    = West Virginia
# COUNTRY   = US
# TELTYPE   = Bubble Wrap  Horn
# FRAME     = TOPO
# GAIN1     = 0.0
# GAIN2     = 12.0
# GAIN3     = 12.0
# GAIN4     = 0.0
# Count     = 360000
# CenterFreq= 1422000000.0
# Bandwidth = 8000000.0
# Duration  = 156.957872
# DeltaX    = 5859.375
# TSYS      = 200.0
# TRX       = 100.0
# TRMS      = 2.0
# TINT      = 1.0
# KPERC     = 100.0
# GAINFACT  = 1.0
# BUNIT     = Counts
# NCHAN     = 2048
# NSPEC     = 1
# NTIME     = 0
# NSAMPLES  = 0
# EPEAK     = 4.10875183718
# ERMS      = 0.995973393526
# EMJD      = 58568.808999981004 
# REFCHAN   = 1024.0
# REFSAMPL  = 256.0
# NAVE      = 600
# NMEDIAN   = 1024
# Fft_rate  = 5000
# UTC       = 2020-11-28 18:21:21.145509
# SECONDS   =       0.0000000000 
# LST       = 17:34:25.050
# AZ        = 180.0
# EL        = -40.0
# TELLON    = -79:50:22.920
# TELLAT    = +38:25:59.160
# RA        = 06:05:23.010
# DEC       = -88:26:43.400
# GALLON    = 301:12:56.20
# GALLAT    = -27:25:41.20
# ALT_SUN   = +27:40:10.1
# AZ_SUN    = +199:25:05.6
# ETAA      = 0.8
# ETAB      = 0.99
# POLANGLE  = 0.0
# TELSIZEAM = 1.0
# TELSIZEBM = 1.0
# AST_VERS  = 05.01
0000 1418001953 0.8396
0001 1418005859 0.8433
0002 1418009765 0.8448
0003 1418013671 0.8484
0004 1418017578 0.8483
0005 1418021484 0.8489
0006 1418025390 0.8500
0007 1418029296 0.8547
0008 1418033203 0.8540
0009 1418037109 0.8580
0010 1418041015 0.8595
0011 1418044921 0.8657
0012 1418048828 0.8682
0013 1418052734 0.8673
0014 1418056640 0.8672
0015 1418060546 0.8676
0016 1418064453 0.8676
0017 1418068359 0.8695
0018 1418072265 0.8717
0019 1418076171 0.8664
0020 1418080078 0.8700
0021 1418083984 0.8676
0022 1418087890 0.8606
0023 1418091796 0.8533
0024 1418095703 0.8411
0025 1418099609 0.8364
0026 1418103515 0.8297
0027 1418107421 0.8138
0028 1418111328 0.8004
0029 1418115234 0.7841
0030 1418119140 0.7686
0031 1418123046 0.7460
0032 1418126953 0.7239
0033 1418130859 0.7015
0034 1418134765 0.6749
0035 1418138671 0.6452
0036 1418142578 0.6132
0037 1418146484 0.5785
0038 1418150390 0.5440
0039 1418154296 0.5069
0040 1418158203 0.4671
0041 1418162109 0.4223
0042 1418166015 0.3828
0043 1418169921 0.3375
0044 1418173828 0.2962
0045 1418177734 0.2531
0046 1418181640 0.2103
0047 1418185546 0.1713
0048 1418189453 0.1336
0049 1418193359 0.1002
0050 1418197265 0.0724
0051 1418201171 0.0507
0052 1418205078 0.0368
0053 1418208984 0.0329
0054 1418212890 0.0404
0055 1418216796 0.0617
0056 1418220703 0.0987
0057 1418224609 0.1542
0058 1418228515 0.2305
0059 1418232421 0.3312
0060 1418236328 0.4600
0061 1418240234 0.6215
0062 1418244140 0.8104
0063 1418248046 1.0398
0064 1418251953 1.3156
0065 1418255859 1.6336
0066 1418259765 2.0002
0067 1418263671 2.4349
0068 1418267578 2.9203
0069 1418271484 3.4840
0070 1418275390 4.1195
0071 1418279296 4.8300
0072 1418283203 5.6336
0073 1418287109 6.5370
0074 1418291015 7.5418
0075 1418294921 8.6230
0076 1418298828 9.8347
0077 1418302734 11.2164
0078 1418306640 12.6769
0079 1418310546 14.3449
0080 1418314453 16.1021
0081 1418318359 18.0481
0082 1418322265 20.0875
0083 1418326171 22.4026
0084 1418330078 24.8747
0085 1418333984 27.5049
0086 1418337890 30.3249
0087 1418341796 33.3665
0088 1418345703 36.6281
0089 1418349609 40.1266
0090 1418353515 43.9139
0091 1418357421 47.7835
0092 1418361328 52.2522
0093 1418365234 56.7234
0094 1418369140 61.5976
0095 1418373046 66.4787
0096 1418376953 72.2300
0097 1418380859 77.7363
0098 1418384765 84.0842
0099 1418388671 90.0878
0100 1418392578 96.6349
0101 1418396484 103.7914
0102 1418400390 111.4986
0103 1418404296 118.7021
0104 1418408203 126.9279
0105 1418412109 134.6046
0106 1418416015 143.3840
0107 1418419921 152.6536
0108 1418423828 161.8913
0109 1418427734 171.6385
0110 1418431640 181.7285
0111 1418435546 192.4831
0112 1418439453 203.4047
0113 1418443359 213.8859
0114 1418447265 225.2577
0115 1418451171 236.3682
0116 1418455078 249.3614
0117 1418458984 261.3675
0118 1418462890 274.4937
0119 1418466796 287.9964
0120 1418470703 301.3573
0121 1418474609 315.2758
0122 1418478515 329.3840
0123 1418482421 343.3952
0124 1418486328 357.5235
0125 1418490234 374.1463
0126 1418494140 386.2328
0127 1418498046 403.4418
0128 1418501953 417.6304
0129 1418505859 434.3000
0130 1418509765 451.1568
0131 1418513671 465.6365
0132 1418517578 480.5302
0133 1418521484 499.3185
0134 1418525390 513.9037
0135 1418529296 530.3249
0136 1418533203 547.6766
0137 1418537109 564.1840
0138 1418541015 579.6437
0139 1418544921 595.6703
0140 1418548828 613.9440
0141 1418552734 630.5478
0142 1418556640 647.1683
0143 1418560546 665.6760
0144 1418564453 680.1589
0145 1418568359 695.9335
0146 1418572265 711.0314
0147 1418576171 729.5309
0148 1418580078 747.6779
0149 1418583984 764.6547
0150 1418587890 778.1398
0151 1418591796 790.2730
0152 1418595703 807.0111
0153 1418599609 823.8199
0154 1418603515 836.8574
0155 1418607421 849.5859
0156 1418611328 868.0641
0157 1418615234 881.2314
0158 1418619140 894.3676
0159 1418623046 904.0357
0160 1418626953 917.9081
0161 1418630859 934.4956
0162 1418634765 943.1671
0163 1418638671 961.1017
0164 1418642578 969.7168
0165 1418646484 977.8557
0166 1418650390 986.8717
0167 1418654296 998.8758
0168 1418658203 1011.8477
0169 1418662109 1021.1261
0170 1418666015 1030.0339
0171 1418669921 1040.3654
0172 1418673828 1044.0901
0173 1418677734 1052.9772
0174 1418681640 1062.0667
0175 1418685546 1065.4374
0176 1418689453 1073.3923
0177 1418693359 1082.6743
0178 1418697265 1089.3240
0179 1418701171 1094.0184
0180 1418705078 1097.0349
0181 1418708984 1105.6410
0182 1418712890 1112.0480
0183 1418716796 1109.7627
0184 1418720703 1115.4617
0185 1418724609 1113.3748
0186 1418728515 1124.9667
0187 1418732421 1119.3671
0188 1418736328 1124.2031
0189 1418740234 1131.4836
0190 1418744140 1131.1344
0191 1418748046 1133.9849
0192 1418751953 1133.7802
0193 1418755859 1128.7856
0194 1418759765 1132.8702
0195 1418763671 1134.3230
0196 1418767578 1134.4580
0197 1418771484 1132.3019
0198 1418775390 1135.1526
0199 1418779296 1132.5236
0200 1418783203 1131.6798
0201 1418787109 1130.8578
0202 1418791015 1126.0768
0203 1418794921 1126.4739
0204 1418798828 1127.7985
0205 1418802734 1118.7052
0206 1418806640 1118.3993
0207 1418810546 1115.9503
0208 1418814453 1113.8367
0209 1418818359 1112.7573
0210 1418822265 1108.7970
0211 1418826171 1110.8539
0212 1418830078 1104.9871
0213 1418833984 1095.6584
0214 1418837890 1098.2347
0215 1418841796 1091.5118
0216 1418845703 1088.9147
0217 1418849609 1092.5289
0218 1418853515 1087.5466
0219 1418857421 1083.6387
0220 1418861328 1083.4910
0221 1418865234 1076.5776
0222 1418869140 1076.4905
0223 1418873046 1073.7229
0224 1418876953 1071.0686
0225 1418880859 1068.9984
0226 1418884765 1060.8005
0227 1418888671 1061.6715
0228 1418892578 1052.6165
0229 1418896484 1051.2368
0230 1418900390 1045.4812
0231 1418904296 1046.5966
0232 1418908203 1042.2131
0233 1418912109 1040.8629
0234 1418916015 1036.0579
0235 1418919921 1035.1932
0236 1418923828 1032.8743
0237 1418927734 1028.6228
0238 1418931640 1023.1503
0239 1418935546 1023.2960
0240 1418939453 1025.1176
0241 1418943359 1021.1851
0242 1418947265 1017.5334
0243 1418951171 1016.1522
0244 1418955078 1013.7108
0245 1418958984 1008.4107
0246 1418962890 1011.0993
0247 1418966796 1005.5734
0248 1418970703 1008.5610
0249 1418974609 1006.6216
0250 1418978515 1000.0107
0251 1418982421 1002.9005
0252 1418986328 1005.0867
0253 1418990234 1006.2800
0254 1418994140 1000.4177
0255 1418998046 999.8472
0256 1419001953 996.5845
0257 1419005859 1001.3331
0258 1419009765 995.2438
0259 1419013671 998.0637
0260 1419017578 995.6391
0261 1419021484 995.4188
0262 1419025390 996.5015
0263 1419029296 995.1028
0264 1419033203 1000.4874
0265 1419037109 996.4907
0266 1419041015 999.6135
0267 1419044921 996.2081
0268 1419048828 1001.4347
0269 1419052734 999.5024
0270 1419056640 998.3363
0271 1419060546 996.0460
0272 1419064453 997.3193
0273 1419068359 999.2269
0274 1419072265 1000.7261
0275 1419076171 1000.7515
0276 1419080078 998.6486
0277 1419083984 997.4058
0278 1419087890 1003.4078
0279 1419091796 1006.6475
0280 1419095703 1003.8780
0281 1419099609 1005.9744
0282 1419103515 1010.0046
0283 1419107421 1011.0972
0284 1419111328 1010.5922
0285 1419115234 1013.6403
0286 1419119140 1012.3466
0287 1419123046 1014.1618
0288 1419126953 1014.9709
0289 1419130859 1013.5590
0290 1419134765 1019.5847
0291 1419138671 1019.1428
0292 1419142578 1021.1808
0293 1419146484 1021.3108
0294 1419150390 1023.3783
0295 1419154296 1024.1049
0296 1419158203 1026.9636
0297 1419162109 1026.8749
0298 1419166015 1029.3679
0299 1419169921 1029.0514
0300 1419173828 1031.2722
0301 1419177734 1032.1691
0302 1419181640 1036.9198
0303 1419185546 1039.0275
0304 1419189453 1039.1346
0305 1419193359 1038.5660
0306 1419197265 1042.6293
0307 1419201171 1039.5837
0308 1419205078 1041.5912
0309 1419208984 1045.2449
0310 1419212890 1046.8771
0311 1419216796 1042.5031
0312 1419220703 1046.3154
0313 1419224609 1050.4052
0314 1419228515 1046.2592
0315 1419232421 1049.8046
0316 1419236328 1053.1780
0317 1419240234 1050.2421
0318 1419244140 1057.4862
0319 1419248046 1055.9077
0320 1419251953 1059.5494
0321 1419255859 1059.5958
0322 1419259765 1058.4604
0323 1419263671 1062.0402
0324 1419267578 1059.9136
0325 1419271484 1060.8666
0326 1419275390 1061.4856
0327 1419279296 1061.7413
0328 1419283203 1058.9076
0329 1419287109 1064.4447
0330 1419291015 1064.9520
0331 1419294921 1066.5625
0332 1419298828 1068.5933
0333 1419302734 1067.7683
0334 1419306640 1066.7832
0335 1419310546 1066.1256
0336 1419314453 1066.4373
0337 1419318359 1072.5790
0338 1419322265 1067.4641
0339 1419326171 1068.2622
0340 1419330078 1069.2117
0341 1419333984 1067.7279
0342 1419337890 1074.3048
0343 1419341796 1073.0270
0344 1419345703 1072.7853
0345 1419349609 1069.2811
0346 1419353515 1067.6359
0347 1419357421 1071.7343
0348 1419361328 1070.7076
0349 1419365234 1073.1724
0350 1419369140 1072.1433
0351 1419373046 1072.3943
0352 1419376953 1071.3351
0353 1419380859 1071.4720
0354 1419384765 1072.5955
0355 1419388671 1068.3954
0356 1419392578 1068.6871
0357 1419396484 1077.5475
0358 1419400390 1072.8197
0359 1419404296 1074.1779
0360 1419408203 1076.8334
0361 1419412109 1073.2914
0362 1419416015 1076.5133
0363 1419419921 1075.7421
0364 1419423828 1072.9061
0365 1419427734 1079.0684
0366 1419431640 1077.4480
0367 1419435546 1073.7489
0368 1419439453 1079.3510
0369 1419443359 1074.6581
0370 1419447265 1075.7959
0371 1419451171 1081.6117
0372 1419455078 1077.1677
0373 1419458984 1076.9865
0374 1419462890 1076.4944
0375 1419466796 1074.7510
0376 1419470703 1074.7292
0377 1419474609 1079.8900
0378 1419478515 1076.2350
0379 1419482421 1075.1241
0380 1419486328 1077.9449
0381 1419490234 1073.9110
0382 1419494140 1075.9609
0383 1419498046 1079.8754
0384 1419501953 1075.2551
0385 1419505859 1076.9891
0386 1419509765 1078.1864
0387 1419513671 1076.1681
0388 1419517578 1074.5538
0389 1419521484 1077.8955
0390 1419525390 1078.0924
0391 1419529296 1075.3448
0392 1419533203 1077.4037
0393 1419537109 1080.8081
0394 1419541015 1079.1429
0395 1419544921 1085.0060
0396 1419548828 1077.5345
0397 1419552734 1076.5341
0398 1419556640 1078.5232
0399 1419560546 1079.5649
0400 1419564453 1076.4240
0401 1419568359 1079.0140
0402 1419572265 1079.7396
0403 1419576171 1080.1323
0404 1419580078 1080.5940
0405 1419583984 1081.7021
0406 1419587890 1080.3462
0407 1419591796 1082.8119
0408 1419595703 1079.9214
0409 1419599609 1079.7810
0410 1419603515 1082.6981
0411 1419607421 1080.5786
0412 1419611328 1076.2153
0413 1419615234 1076.2832
0414 1419619140 1079.3060
0415 1419623046 1080.4252
0416 1419626953 1078.7238
0417 1419630859 1075.2811
0418 1419634765 1074.9186
0419 1419638671 1072.9835
0420 1419642578 1079.0000
0421 1419646484 1078.3369
0422 1419650390 1077.2020
0423 1419654296 1072.6241
0424 1419658203 1069.9003
0425 1419662109 1069.7557
0426 1419666015 1074.2454
0427 1419669921 1066.4550
0428 1419673828 1071.1315
0429 1419677734 1068.6750
0430 1419681640 1074.6959
0431 1419685546 1073.2622
0432 1419689453 1068.7554
0433 1419693359 1071.2253
0434 1419697265 1068.5498
0435 1419701171 1072.4869
0436 1419705078 1065.7585
0437 1419708984 1064.3473
0438 1419712890 1064.6934
0439 1419716796 1066.4601
0440 1419720703 1063.6289
0441 1419724609 1062.1151
0442 1419728515 1061.3439
0443 1419732421 1062.1923
0444 1419736328 1061.6929
0445 1419740234 1059.6812
0446 1419744140 1061.1102
0447 1419748046 1061.8573
0448 1419751953 1057.2446
0449 1419755859 1053.0302
0450 1419759765 1055.1096
0451 1419763671 1052.9585
0452 1419767578 1055.1630
0453 1419771484 1046.3538
0454 1419775390 1049.6245
0455 1419779296 1046.1208
0456 1419783203 1048.4523
0457 1419787109 1047.2882
0458 1419791015 1045.3738
0459 1419794921 1045.8962
0460 1419798828 1044.0063
0461 1419802734 1043.6519
0462 1419806640 1042.2969
0463 1419810546 1044.3357
0464 1419814453 1038.3605
0465 1419818359 1040.3717
0466 1419822265 1040.3768
0467 1419826171 1041.6348
0468 1419830078 1040.2838
0469 1419833984 1038.8262
0470 1419837890 1031.7462
0471 1419841796 1038.9846
0472 1419845703 1037.0331
0473 1419849609 1036.1138
0474 1419853515 1036.4028
0475 1419857421 1036.2046
0476 1419861328 1029.5886
0477 1419865234 1027.4413
0478 1419869140 1027.1785
0479 1419873046 1023.3554
0480 1419876953 1027.1731
0481 1419880859 1029.1244
0482 1419884765 1026.1731
0483 1419888671 1026.8657
0484 1419892578 1030.4198
0485 1419896484 1025.4409
0486 1419900390 1023.0297
0487 1419904296 1021.0507
0488 1419908203 1024.6182
0489 1419912109 1022.3306
0490 1419916015 1022.7087
0491 1419919921 1019.8788
0492 1419923828 1017.7055
0493 1419927734 1018.9580
0494 1419931640 1017.9830
0495 1419935546 1018.3833
0496 1419939453 1019.8109
0497 1419943359 1017.1863
0498 1419947265 1017.5876
0499 1419951171 1020.4942
0500 1419955078 1020.4633
0501 1419958984 1015.6082
0502 1419962890 1020.3477
0503 1419966796 1020.5483
0504 1419970703 1017.1634
0505 1419974609 1018.4479
0506 1419978515 1018.4768
0507 1419982421 1018.2375
0508 1419986328 1017.1920
0509 1419990234 1014.9191
0510 1419994140 1013.1611
0511 1419998046 1018.2621
0512 1420001953 1017.1937
0513 1420005859 1019.4284
0514 1420009765 1018.5223
0515 1420013671 1019.1540
0516 1420017578 1019.7258
0517 1420021484 1016.1166
0518 1420025390 1016.8134
0519 1420029296 1021.7931
0520 1420033203 1017.1589
0521 1420037109 1015.2362
0522 1420041015 1018.6981
0523 1420044921 1017.0300
0524 1420048828 1015.6432
0525 1420052734 1016.2803
0526 1420056640 1015.9595
0527 1420060546 1018.8172
0528 1420064453 1021.2109
0529 1420068359 1022.1019
0530 1420072265 1018.5108
0531 1420076171 1019.4711
0532 1420080078 1017.8970
0533 1420083984 1019.3475
0534 1420087890 1017.4080
0535 1420091796 1020.0939
0536 1420095703 1021.5175
0537 1420099609 1019.3652
0538 1420103515 1020.7417
0539 1420107421 1023.4426
0540 1420111328 1019.6003
0541 1420115234 1020.2734
0542 1420119140 1020.6672
0543 1420123046 1019.4178
0544 1420126953 1018.9185
0545 1420130859 1024.8568
0546 1420134765 1018.1012
0547 1420138671 1020.3893
0548 1420142578 1017.9685
0549 1420146484 1016.6526
0550 1420150390 1017.4666
0551 1420154296 1017.9950
0552 1420158203 1018.8979
0553 1420162109 1016.9962
0554 1420166015 1019.3783
0555 1420169921 1022.2242
0556 1420173828 1019.0139
0557 1420177734 1018.1217
0558 1420181640 1018.8124
0559 1420185546 1017.6284
0560 1420189453 1018.8312
0561 1420193359 1017.2678
0562 1420197265 1015.6495
0563 1420201171 1016.5594
0564 1420205078 1016.6242
0565 1420208984 1016.2300
0566 1420212890 1016.5548
0567 1420216796 1011.0272
0568 1420220703 1012.4193
0569 1420224609 1012.7791
0570 1420228515 1014.7850
0571 1420232421 1011.1125
0572 1420236328 1013.8833
0573 1420240234 1011.2092
0574 1420244140 1012.1042
0575 1420248046 1013.5377
0576 1420251953 1009.9523
0577 1420255859 1014.0894
0578 1420259765 1011.9834
0579 1420263671 1007.5096
0580 1420267578 1011.3697
0581 1420271484 1010.1338
0582 1420275390 1006.8833
0583 1420279296 1011.7621
0584 1420283203 1008.4142
0585 1420287109 1006.7765
0586 1420291015 1007.5101
0587 1420294921 1002.7761
0588 1420298828 1004.5224
0589 1420302734 1003.0897
0590 1420306640 1001.2059
0591 1420310546 1002.5844
0592 1420314453 1001.6592
0593 1420318359 1005.9200
0594 1420322265 1001.7712
0595 1420326171 1000.6429
0596 1420330078 998.1053
0597 1420333984 994.7492
0598 1420337890 1001.7286
0599 1420341796 1000.6132
0600 1420345703 996.7009
0601 1420349609 999.2147
0602 1420353515 999.6367
0603 1420357421 1002.0770
0604 1420361328 997.4062
0605 1420365234 998.0292
0606 1420369140 998.9053
0607 1420373046 992.0848
0608 1420376953 994.4901
0609 1420380859 995.2955
0610 1420384765 994.2146
0611 1420388671 993.3503
0612 1420392578 992.6634
0613 1420396484 991.0156
0614 1420400390 989.1885
0615 1420404296 990.1494
0616 1420408203 991.7278
0617 1420412109 989.3452
0618 1420416015 988.9835
0619 1420419921 985.7576
0620 1420423828 985.1118
0621 1420427734 985.8406
0622 1420431640 987.1378
0623 1420435546 985.2527
0624 1420439453 983.7346
0625 1420443359 985.3875
0626 1420447265 982.4609
0627 1420451171 983.6361
0628 1420455078 984.4757
0629 1420458984 985.5082
0630 1420462890 986.8271
0631 1420466796 985.0720
0632 1420470703 986.6600
0633 1420474609 984.9659
0634 1420478515 987.2648
0635 1420482421 982.9442
0636 1420486328 982.1567
0637 1420490234 981.0552
0638 1420494140 982.0699
0639 1420498046 981.2550
0640 1420501953 981.2740
0641 1420505859 982.5673
0642 1420509765 982.2251
0643 1420513671 985.0281
0644 1420517578 983.5618
0645 1420521484 981.2864
0646 1420525390 981.1457
0647 1420529296 979.3952
0648 1420533203 983.4454
0649 1420537109 981.4581
0650 1420541015 981.9780
0651 1420544921 983.1515
0652 1420548828 984.3185
0653 1420552734 983.8021
0654 1420556640 986.1899
0655 1420560546 982.4047
0656 1420564453 984.6409
0657 1420568359 983.1722
0658 1420572265 982.1452
0659 1420576171 981.1849
0660 1420580078 983.5438
0661 1420583984 986.2330
0662 1420587890 985.8412
0663 1420591796 985.1829
0664 1420595703 982.0078
0665 1420599609 984.2905
0666 1420603515 987.3486
0667 1420607421 983.8883
0668 1420611328 986.5466
0669 1420615234 984.4897
0670 1420619140 983.8987
0671 1420623046 984.2347
0672 1420626953 988.4986
0673 1420630859 986.9622
0674 1420634765 983.6469
0675 1420638671 983.7752
0676 1420642578 984.4351
0677 1420646484 982.3403
0678 1420650390 979.7283
0679 1420654296 980.9949
0680 1420658203 985.7411
0681 1420662109 983.0149
0682 1420666015 984.9468
0683 1420669921 981.0204
0684 1420673828 984.6403
0685 1420677734 981.6003
0686 1420681640 982.0081
0687 1420685546 977.0718
0688 1420689453 979.5152
0689 1420693359 977.9088
0690 1420697265 978.3130
0691 1420701171 983.8667
0692 1420705078 984.6078
0693 1420708984 979.6122
0694 1420712890 976.0916
0695 1420716796 977.0985
0696 1420720703 978.9570
0697 1420724609 982.5457
0698 1420728515 976.1975
0699 1420732421 976.9010
0700 1420736328 977.6570
0701 1420740234 974.5507
0702 1420744140 973.2401
0703 1420748046 974.3140
0704 1420751953 977.3884
0705 1420755859 971.2401
0706 1420759765 971.1455
0707 1420763671 971.5681
0708 1420767578 975.7434
0709 1420771484 972.2570
0710 1420775390 971.3008
0711 1420779296 971.5182
0712 1420783203 971.1898
0713 1420787109 971.9665
0714 1420791015 966.8023
0715 1420794921 966.3446
0716 1420798828 969.2114
0717 1420802734 966.4181
0718 1420806640 966.0668
0719 1420810546 966.4841
0720 1420814453 962.9810
0721 1420818359 967.4249
0722 1420822265 968.3956
0723 1420826171 966.8305
0724 1420830078 963.5184
0725 1420833984 966.5390
0726 1420837890 967.0620
0727 1420841796 965.4633
0728 1420845703 965.9546
0729 1420849609 961.0219
0730 1420853515 964.0276
0731 1420857421 963.4279
0732 1420861328 960.6486
0733 1420865234 964.8450
0734 1420869140 960.3935
0735 1420873046 959.7332
0736 1420876953 960.7187
0737 1420880859 961.0834
0738 1420884765 961.8172
0739 1420888671 959.9243
0740 1420892578 965.1870
0741 1420896484 964.2118
0742 1420900390 963.5034
0743 1420904296 960.1440
0744 1420908203 966.6031
0745 1420912109 965.8118
0746 1420916015 962.9442
0747 1420919921 966.7308
0748 1420923828 964.0277
0749 1420927734 966.7285
0750 1420931640 965.8880
0751 1420935546 964.7926
0752 1420939453 965.9128
0753 1420943359 967.0068
0754 1420947265 968.1003
0755 1420951171 968.4557
0756 1420955078 971.7806
0757 1420958984 971.4175
0758 1420962890 970.1453
0759 1420966796 973.6388
0760 1420970703 976.2891
0761 1420974609 972.9449
0762 1420978515 976.3742
0763 1420982421 971.1449
0764 1420986328 975.7877
0765 1420990234 977.3531
0766 1420994140 976.5608
0767 1420998046 981.8751
0768 1421001953 980.0883
0769 1421005859 983.2549
0770 1421009765 976.7353
0771 1421013671 982.5116
0772 1421017578 983.6290
0773 1421021484 985.3372
0774 1421025390 986.0962
0775 1421029296 988.2451
0776 1421033203 986.0311
0777 1421037109 989.0502
0778 1421041015 985.0935
0779 1421044921 988.7476
0780 1421048828 993.7892
0781 1421052734 992.3513
0782 1421056640 993.9894
0783 1421060546 991.5584
0784 1421064453 996.1516
0785 1421068359 999.3802
0786 1421072265 997.7271
0787 1421076171 997.8152
0788 1421080078 1003.1875
0789 1421083984 1000.8896
0790 1421087890 1002.3638
0791 1421091796 1004.2216
0792 1421095703 999.6803
0793 1421099609 1003.3499
0794 1421103515 1006.3271
0795 1421107421 1008.2797
0796 1421111328 1006.7329
0797 1421115234 1004.3564
0798 1421119140 1005.1922
0799 1421123046 1011.0140
0800 1421126953 1008.8331
0801 1421130859 1008.5195
0802 1421134765 1010.2272
0803 1421138671 1010.6619
0804 1421142578 1011.2766
0805 1421146484 1010.4838
0806 1421150390 1010.9087
0807 1421154296 1018.1518
0808 1421158203 1016.1911
0809 1421162109 1012.8156
0810 1421166015 1013.6592
0811 1421169921 1010.9152
0812 1421173828 1014.3583
0813 1421177734 1015.7227
0814 1421181640 1016.6999
0815 1421185546 1014.9313
0816 1421189453 1015.2940
0817 1421193359 1016.1833
0818 1421197265 1014.2020
0819 1421201171 1012.7196
0820 1421205078 1015.3208
0821 1421208984 1013.4672
0822 1421212890 1009.9645
0823 1421216796 1010.4012
0824 1421220703 1010.8470
0825 1421224609 1010.1898
0826 1421228515 1013.7825
0827 1421232421 1011.1909
0828 1421236328 1011.6393
0829 1421240234 1012.7272
0830 1421244140 1006.5217
0831 1421248046 1006.9645
0832 1421251953 1006.3467
0833 1421255859 1006.6036
0834 1421259765 1009.0036
0835 1421263671 1005.5790
0836 1421267578 1006.6402
0837 1421271484 1002.7075
0838 1421275390 997.8999
0839 1421279296 1000.2166
0840 1421283203 998.4158
0841 1421287109 1000.4516
0842 1421291015 997.1486
0843 1421294921 997.0468
0844 1421298828 995.0606
0845 1421302734 995.2474
0846 1421306640 994.3455
0847 1421310546 995.1805
0848 1421314453 991.4772
0849 1421318359 995.2690
0850 1421322265 994.8851
0851 1421326171 994.6298
0852 1421330078 990.9907
0853 1421333984 989.4136
0854 1421337890 988.9838
0855 1421341796 990.4651
0856 1421345703 989.8528
0857 1421349609 982.3803
0858 1421353515 986.6748
0859 1421357421 985.9232
0860 1421361328 987.9058
0861 1421365234 983.9271
0862 1421369140 984.6284
0863 1421373046 981.1591
0864 1421376953 984.7181
0865 1421380859 980.9826
0866 1421384765 977.9098
0867 1421388671 979.5088
0868 1421392578 978.4894
0869 1421396484 977.3396
0870 1421400390 975.3922
0871 1421404296 973.5174
0872 1421408203 977.3126
0873 1421412109 974.1192
0874 1421416015 973.7350
0875 1421419921 971.7123
0876 1421423828 976.3994
0877 1421427734 973.9840
0878 1421431640 973.2559
0879 1421435546 975.1011
0880 1421439453 974.1727
0881 1421443359 973.1895
0882 1421447265 972.6821
0883 1421451171 974.0940
0884 1421455078 974.9512
0885 1421458984 976.7455
0886 1421462890 976.3887
0887 1421466796 977.1531
0888 1421470703 976.6543
0889 1421474609 975.1058
0890 1421478515 981.1492
0891 1421482421 975.5416
0892 1421486328 979.4654
0893 1421490234 978.7605
0894 1421494140 976.8830
0895 1421498046 980.1602
0896 1421501953 980.6942
0897 1421505859 982.9097
0898 1421509765 982.3146
0899 1421513671 986.9048
0900 1421517578 981.0486
0901 1421521484 982.0640
0902 1421525390 984.5643
0903 1421529296 983.8102
0904 1421533203 985.0802
0905 1421537109 987.8690
0906 1421541015 987.4761
0907 1421544921 994.2294
0908 1421548828 997.7861
0909 1421552734 993.7007
0910 1421556640 993.2379
0911 1421560546 998.8829
0912 1421564453 994.4229
0913 1421568359 997.2296
0914 1421572265 994.3731
0915 1421576171 999.4861
0916 1421580078 1000.0320
0917 1421583984 1004.3712
0918 1421587890 1002.7580
0919 1421591796 1008.6732
0920 1421595703 1009.2592
0921 1421599609 1007.2355
0922 1421603515 1013.1307
0923 1421607421 1008.5201
0924 1421611328 1015.4741
0925 1421615234 1013.9220
0926 1421619140 1010.6283
0927 1421623046 1015.2584
0928 1421626953 1020.0359
0929 1421630859 1016.5366
0930 1421634765 1018.2792
0931 1421638671 1020.8159
0932 1421642578 1020.4353
0933 1421646484 1021.6926
0934 1421650390 1018.2216
0935 1421654296 1025.6178
0936 1421658203 1027.1102
0937 1421662109 1030.0094
0938 1421666015 1024.3468
0939 1421669921 1031.6637
0940 1421673828 1025.2686
0941 1421677734 1030.1975
0942 1421681640 1029.9025
0943 1421685546 1027.6786
0944 1421689453 1027.3531
0945 1421693359 1034.4973
0946 1421697265 1033.8834
0947 1421701171 1037.0616
0948 1421705078 1030.2759
0949 1421708984 1031.8507
0950 1421712890 1032.1178
0951 1421716796 1032.9447
0952 1421720703 1031.2161
0953 1421724609 1032.2073
0954 1421728515 1032.3466
0955 1421732421 1029.6498
0956 1421736328 1034.6343
0957 1421740234 1033.8839
0958 1421744140 1036.1930
0959 1421748046 1032.1584
0960 1421751953 1033.6709
0961 1421755859 1030.2888
0962 1421759765 1031.1542
0963 1421763671 1033.3734
0964 1421767578 1031.0989
0965 1421771484 1027.5804
0966 1421775390 1030.3589
0967 1421779296 1033.5623
0968 1421783203 1029.1809
0969 1421787109 1025.6619
0970 1421791015 1026.1904
0971 1421794921 1026.1290
0972 1421798828 1020.6343
0973 1421802734 1024.0536
0974 1421806640 1020.9875
0975 1421810546 1023.2752
0976 1421814453 1021.6208
0977 1421818359 1019.3265
0978 1421822265 1019.3351
0979 1421826171 1017.8084
0980 1421830078 1012.5104
0981 1421833984 1015.5338
0982 1421837890 1014.7601
0983 1421841796 1012.1429
0984 1421845703 1009.6774
0985 1421849609 1004.9263
0986 1421853515 1009.9088
0987 1421857421 1009.1266
0988 1421861328 1002.8057
0989 1421865234 1004.3718
0990 1421869140 1005.5131
0991 1421873046 1002.8206
0992 1421876953 1002.6221
0993 1421880859 999.3122
0994 1421884765 994.9312
0995 1421888671 994.7137
0996 1421892578 995.3734
0997 1421896484 994.1716
0998 1421900390 988.8360
0999 1421904296 992.7823
1000 1421908203 994.7850
1001 1421912109 990.8555
1002 1421916015 988.5759
1003 1421919921 989.5770
1004 1421923828 985.9763
1005 1421927734 986.3654
1006 1421931640 983.0053
1007 1421935546 983.2186
1008 1421939453 982.0104
1009 1421943359 982.2476
1010 1421947265 976.1965
1011 1421951171 982.2277
1012 1421955078 981.3497
1013 1421958984 982.2230
1014 1421962890 977.3067
1015 1421966796 979.6525
1016 1421970703 978.5909
1017 1421974609 976.2090
1018 1421978515 977.2482
1019 1421982421 980.0440
1020 1421986328 982.2407
1021 1421990234 980.6855
1022 1421994140 983.8972
1023 1421998046 1012.3034
1024 1422001953 1099.6495
1025 1422005859 1015.6963
1026 1422009765 985.5794
1027 1422013671 984.6548
1028 1422017578 981.4930
1029 1422021484 978.6000
1030 1422025390 976.1359
1031 1422029296 980.3478
1032 1422033203 980.1484
1033 1422037109 978.5093
1034 1422041015 979.4250
1035 1422044921 981.6083
1036 1422048828 978.4540
1037 1422052734 972.6880
1038 1422056640 980.3907
1039 1422060546 978.2744
1040 1422064453 981.1536
1041 1422068359 980.1782
1042 1422072265 984.1443
1043 1422076171 981.6489
1044 1422080078 979.1644
1045 1422083984 981.4367
1046 1422087890 976.1116
1047 1422091796 988.9263
1048 1422095703 986.6389
1049 1422099609 989.9973
1050 1422103515 989.9668
1051 1422107421 987.2782
1052 1422111328 988.3463
1053 1422115234 990.4707
1054 1422119140 990.0541
1055 1422123046 990.9414
1056 1422126953 997.0138
1057 1422130859 999.4926
1058 1422134765 999.4399
1059 1422138671 999.4787
1060 1422142578 998.2397
1061 1422146484 998.7740
1062 1422150390 1002.3989
1063 1422154296 1004.8813
1064 1422158203 1003.5566
1065 1422162109 1008.0150
1066 1422166015 1010.4465
1067 1422169921 1006.9601
1068 1422173828 1008.9404
1069 1422177734 1006.2002
1070 1422181640 1011.5012
1071 1422185546 1010.6252
1072 1422189453 1011.0911
1073 1422193359 1012.8461
1074 1422197265 1013.0373
1075 1422201171 1014.9534
1076 1422205078 1018.3271
1077 1422208984 1018.6053
1078 1422212890 1018.5613
1079 1422216796 1019.4965
1080 1422220703 1019.8491
1081 1422224609 1018.7938
1082 1422228515 1016.3984
1083 1422232421 1019.0480
1084 1422236328 1020.8533
1085 1422240234 1021.3140
1086 1422244140 1021.4207
1087 1422248046 1018.6938
1088 1422251953 1022.6298
1089 1422255859 1023.8605
1090 1422259765 1022.3605
1091 1422263671 1027.8323
1092 1422267578 1022.8485
1093 1422271484 1021.4119
1094 1422275390 1019.3843
1095 1422279296 1023.0787
1096 1422283203 1021.6188
1097 1422287109 1025.2346
1098 1422291015 1021.7350
1099 1422294921 1021.8867
1100 1422298828 1017.5269
1101 1422302734 1022.7221
1102 1422306640 1018.7429
1103 1422310546 1018.9713
1104 1422314453 1018.6960
1105 1422318359 1016.5444
1106 1422322265 1018.9009
1107 1422326171 1016.9888
1108 1422330078 1013.8505
1109 1422333984 1014.6498
1110 1422337890 1014.9163
1111 1422341796 1017.5739
1112 1422345703 1012.6772
1113 1422349609 1014.0611
1114 1422353515 1008.6095
1115 1422357421 1005.4817
1116 1422361328 1008.9899
1117 1422365234 1005.5179
1118 1422369140 1006.3791
1119 1422373046 1007.9017
1120 1422376953 1006.6024
1121 1422380859 1007.1413
1122 1422384765 1001.5214
1123 1422388671 997.3481
1124 1422392578 1002.3599
1125 1422396484 997.0048
1126 1422400390 998.3596
1127 1422404296 998.7927
1128 1422408203 993.1486
1129 1422412109 990.5943
1130 1422416015 992.5458
1131 1422419921 988.9088
1132 1422423828 989.9557
1133 1422427734 988.0052
1134 1422431640 986.2197
1135 1422435546 981.7682
1136 1422439453 980.5049
1137 1422443359 980.0253
1138 1422447265 985.4992
1139 1422451171 978.1065
1140 1422455078 978.5182
1141 1422458984 976.4842
1142 1422462890 977.9163
1143 1422466796 973.2628
1144 1422470703 971.5460
1145 1422474609 972.4376
1146 1422478515 971.9458
1147 1422482421 973.2654
1148 1422486328 969.1624
1149 1422490234 969.3245
1150 1422494140 966.4786
1151 1422498046 967.1964
1152 1422501953 967.4632
1153 1422505859 968.6401
1154 1422509765 965.4344
1155 1422513671 964.8013
1156 1422517578 963.1747
1157 1422521484 964.7159
1158 1422525390 961.9341
1159 1422529296 963.6791
1160 1422533203 957.7485
1161 1422537109 958.0253
1162 1422541015 957.3280
1163 1422544921 961.0068
1164 1422548828 961.7590
1165 1422552734 960.6707
1166 1422556640 954.2892
1167 1422560546 959.4045
1168 1422564453 958.0488
1169 1422568359 961.4990
1170 1422572265 963.2327
1171 1422576171 959.5638
1172 1422580078 957.9842
1173 1422583984 964.0031
1174 1422587890 962.9200
1175 1422591796 959.4822
1176 1422595703 960.9808
1177 1422599609 962.8853
1178 1422603515 965.9911
1179 1422607421 965.8206
1180 1422611328 964.4570
1181 1422615234 961.7498
1182 1422619140 962.8658
1183 1422623046 964.5657
1184 1422626953 965.3627
1185 1422630859 968.6281
1186 1422634765 967.6519
1187 1422638671 964.5972
1188 1422642578 965.3051
1189 1422646484 968.5071
1190 1422650390 969.6263
1191 1422654296 968.4210
1192 1422658203 969.7032
1193 1422662109 972.7632
1194 1422666015 974.4910
1195 1422669921 972.8995
1196 1422673828 971.9427
1197 1422677734 972.4234
1198 1422681640 976.2062
1199 1422685546 977.1281
1200 1422689453 978.7035
1201 1422693359 980.2556
1202 1422697265 979.7652
1203 1422701171 980.9059
1204 1422705078 983.6025
1205 1422708984 984.5213
1206 1422712890 983.5712
1207 1422716796 980.7863
1208 1422720703 986.7722
1209 1422724609 985.2255
1210 1422728515 985.4962
1211 1422732421 985.6172
1212 1422736328 986.8695
1213 1422740234 989.4723
1214 1422744140 989.4570
1215 1422748046 990.7686
1216 1422751953 992.4312
1217 1422755859 991.8803
1218 1422759765 988.1436
1219 1422763671 994.8017
1220 1422767578 992.1014
1221 1422771484 994.7003
1222 1422775390 994.1971
1223 1422779296 990.6352
1224 1422783203 994.2809
1225 1422787109 993.3080
1226 1422791015 992.3436
1227 1422794921 995.5150
1228 1422798828 997.8312
1229 1422802734 992.4466
1230 1422806640 997.0464
1231 1422810546 993.2223
1232 1422814453 997.6624
1233 1422818359 996.7092
1234 1422822265 996.2937
1235 1422826171 998.0952
1236 1422830078 995.3069
1237 1422833984 994.0541
1238 1422837890 994.8895
1239 1422841796 996.0104
1240 1422845703 994.7448
1241 1422849609 995.5757
1242 1422853515 994.7302
1243 1422857421 994.2294
1244 1422861328 993.3325
1245 1422865234 990.9079
1246 1422869140 992.9952
1247 1422873046 993.8836
1248 1422876953 995.3190
1249 1422880859 991.7330
1250 1422884765 991.9448
1251 1422888671 992.8145
1252 1422892578 994.2552
1253 1422896484 990.7981
1254 1422900390 989.5875
1255 1422904296 985.8340
1256 1422908203 984.3448
1257 1422912109 987.7255
1258 1422916015 987.1541
1259 1422919921 986.8039
1260 1422923828 983.6520
1261 1422927734 984.2487
1262 1422931640 983.4362
1263 1422935546 982.2007
1264 1422939453 977.3223
1265 1422943359 976.8957
1266 1422947265 975.2831
1267 1422951171 978.9535
1268 1422955078 972.4557
1269 1422958984 975.0042
1270 1422962890 974.0640
1271 1422966796 971.3677
1272 1422970703 969.8242
1273 1422974609 972.9086
1274 1422978515 971.7456
1275 1422982421 967.9641
1276 1422986328 963.3665
1277 1422990234 962.7952
1278 1422994140 964.6721
1279 1422998046 965.3029
1280 1423001953 963.2986
1281 1423005859 961.2585
1282 1423009765 957.2643
1283 1423013671 959.8237
1284 1423017578 957.5128
1285 1423021484 955.9877
1286 1423025390 956.6095
1287 1423029296 961.0080
1288 1423033203 956.4492
1289 1423037109 954.4794
1290 1423041015 950.3024
1291 1423044921 951.7029
1292 1423048828 951.6514
1293 1423052734 951.4982
1294 1423056640 946.9115
1295 1423060546 947.3104
1296 1423064453 949.4213
1297 1423068359 949.9091
1298 1423072265 951.6769
1299 1423076171 951.0846
1300 1423080078 948.2856
1301 1423083984 949.4745
1302 1423087890 950.5373
1303 1423091796 947.1980
1304 1423095703 947.7289
1305 1423099609 947.7691
1306 1423103515 947.5557
1307 1423107421 946.1069
1308 1423111328 946.5754
1309 1423115234 945.6866
1310 1423119140 944.8174
1311 1423123046 943.3926
1312 1423126953 946.7014
1313 1423130859 947.5824
1314 1423134765 942.9606
1315 1423138671 948.1398
1316 1423142578 943.8918
1317 1423146484 945.7196
1318 1423150390 942.6049
1319 1423154296 942.3969
1320 1423158203 944.6347
1321 1423162109 943.6560
1322 1423166015 943.8650
1323 1423169921 947.9513
1324 1423173828 947.5386
1325 1423177734 947.4805
1326 1423181640 942.2480
1327 1423185546 944.3015
1328 1423189453 949.2523
1329 1423193359 950.0417
1330 1423197265 948.6132
1331 1423201171 951.0294
1332 1423205078 948.0898
1333 1423208984 944.1091
1334 1423212890 948.0802
1335 1423216796 949.5328
1336 1423220703 949.5546
1337 1423224609 950.5295
1338 1423228515 950.5189
1339 1423232421 953.9764
1340 1423236328 952.3739
1341 1423240234 951.9324
1342 1423244140 954.3724
1343 1423248046 949.6895
1344 1423251953 950.4925
1345 1423255859 954.2494
1346 1423259765 952.4069
1347 1423263671 952.3829
1348 1423267578 953.9150
1349 1423271484 956.0452
1350 1423275390 957.4296
1351 1423279296 959.1954
1352 1423283203 957.3130
1353 1423287109 956.2781
1354 1423291015 958.6415
1355 1423294921 959.9208
1356 1423298828 963.4517
1357 1423302734 958.6359
1358 1423306640 955.2285
1359 1423310546 956.2896
1360 1423314453 960.1351
1361 1423318359 958.8494
1362 1423322265 959.9656
1363 1423326171 963.2898
1364 1423330078 960.8698
1365 1423333984 960.8610
1366 1423337890 962.8850
1367 1423341796 961.9558
1368 1423345703 962.7118
1369 1423349609 962.5631
1370 1423353515 959.6736
1371 1423357421 956.4566
1372 1423361328 959.3589
1373 1423365234 964.1197
1374 1423369140 960.5989
1375 1423373046 960.7658
1376 1423376953 960.2985
1377 1423380859 960.7242
1378 1423384765 959.4077
1379 1423388671 961.7231
1380 1423392578 960.1541
1381 1423396484 959.6897
1382 1423400390 960.1281
1383 1423404296 962.0123
1384 1423408203 963.1666
1385 1423412109 959.1196
1386 1423416015 958.8499
1387 1423419921 960.1705
1388 1423423828 964.2309
1389 1423427734 965.3279
1390 1423431640 959.9625
1391 1423435546 958.6862
1392 1423439453 959.0951
1393 1423443359 957.9730
1394 1423447265 958.1365
1395 1423451171 958.9308
1396 1423455078 957.5098
1397 1423458984 961.1345
1398 1423462890 958.7996
1399 1423466796 958.0713
1400 1423470703 959.9213
1401 1423474609 962.0414
1402 1423478515 963.7722
1403 1423482421 956.9235
1404 1423486328 958.9705
1405 1423490234 955.8937
1406 1423494140 956.7959
1407 1423498046 954.0436
1408 1423501953 959.2601
1409 1423505859 953.5050
1410 1423509765 957.3383
1411 1423513671 957.7354
1412 1423517578 957.9016
1413 1423521484 957.3060
1414 1423525390 956.5818
1415 1423529296 959.9929
1416 1423533203 956.0363
1417 1423537109 956.0411
1418 1423541015 956.9542
1419 1423544921 954.3890
1420 1423548828 959.5074
1421 1423552734 956.1562
1422 1423556640 954.8596
1423 1423560546 954.8264
1424 1423564453 955.7942
1425 1423568359 955.4409
1426 1423572265 957.4805
1427 1423576171 957.0425
1428 1423580078 956.3706
1429 1423583984 960.3276
1430 1423587890 959.0985
1431 1423591796 959.8695
1432 1423595703 958.8303
1433 1423599609 959.8209
1434 1423603515 961.4556
1435 1423607421 962.7092
1436 1423611328 961.3933
1437 1423615234 956.4102
1438 1423619140 960.8044
1439 1423623046 959.3649
1440 1423626953 959.2400
1441 1423630859 957.5506
1442 1423634765 961.1119
1443 1423638671 962.2462
1444 1423642578 960.6969
1445 1423646484 960.7792
1446 1423650390 962.4153
1447 1423654296 964.6890
1448 1423658203 966.1299
1449 1423662109 962.6467
1450 1423666015 964.2084
1451 1423669921 967.9803
1452 1423673828 964.6008
1453 1423677734 966.6276
1454 1423681640 967.4775
1455 1423685546 968.7660
1456 1423689453 966.3729
1457 1423693359 967.7184
1458 1423697265 970.7236
1459 1423701171 970.6567
1460 1423705078 973.0800
1461 1423708984 971.4372
1462 1423712890 969.7669
1463 1423716796 971.9626
1464 1423720703 972.4991
1465 1423724609 975.5464
1466 1423728515 978.7429
1467 1423732421 974.2224
1468 1423736328 973.5480
1469 1423740234 974.7280
1470 1423744140 977.8837
1471 1423748046 979.0262
1472 1423751953 975.9713
1473 1423755859 977.4722
1474 1423759765 978.0255
1475 1423763671 974.9133
1476 1423767578 982.2625
1477 1423771484 982.0695
1478 1423775390 978.7111
1479 1423779296 979.9178
1480 1423783203 979.3295
1481 1423787109 981.5587
1482 1423791015 984.7328
1483 1423794921 982.7661
1484 1423798828 982.6298
1485 1423802734 983.3484
1486 1423806640 984.0809
1487 1423810546 985.5348
1488 1423814453 985.1821
1489 1423818359 984.5500
1490 1423822265 987.0220
1491 1423826171 985.4904
1492 1423830078 986.2992
1493 1423833984 987.0181
1494 1423837890 986.0989
1495 1423841796 985.3199
1496 1423845703 984.6353
1497 1423849609 981.5298
1498 1423853515 983.8168
1499 1423857421 988.5682
1500 1423861328 985.0143
1501 1423865234 987.6001
1502 1423869140 986.1879
1503 1423873046 985.7606
1504 1423876953 985.7554
1505 1423880859 987.3323
1506 1423884765 986.9070
1507 1423888671 985.6790
1508 1423892578 986.6088
1509 1423896484 983.9604
1510 1423900390 982.4457
1511 1423904296 985.4095
1512 1423908203 989.2145
1513 1423912109 986.0779
1514 1423916015 984.0198
1515 1423919921 987.9730
1516 1423923828 984.9407
1517 1423927734 983.9221
1518 1423931640 987.2294
1519 1423935546 983.7469
1520 1423939453 987.7991
1521 1423943359 984.6884
1522 1423947265 981.5478
1523 1423951171 982.6235
1524 1423955078 981.7356
1525 1423958984 985.0270
1526 1423962890 984.1464
1527 1423966796 985.2989
1528 1423970703 986.4423
1529 1423974609 982.0342
1530 1423978515 983.1273
1531 1423982421 982.1348
1532 1423986328 978.3659
1533 1423990234 979.6465
1534 1423994140 979.9960
1535 1423998046 982.5464
1536 1424001953 995.6473
1537 1424005859 983.4197
1538 1424009765 979.6613
1539 1424013671 980.7371
1540 1424017578 981.2393
1541 1424021484 980.5471
1542 1424025390 982.5629
1543 1424029296 979.1339
1544 1424033203 982.1621
1545 1424037109 977.8609
1546 1424041015 983.7828
1547 1424044921 984.5635
1548 1424048828 982.6185
1549 1424052734 981.7167
1550 1424056640 979.0880
1551 1424060546 983.7774
1552 1424064453 982.4393
1553 1424068359 981.9409
1554 1424072265 983.2294
1555 1424076171 982.6609
1556 1424080078 983.3613
1557 1424083984 986.4257
1558 1424087890 983.5178
1559 1424091796 986.8008
1560 1424095703 989.6718
1561 1424099609 983.3283
1562 1424103515 982.1638
1563 1424107421 986.9785
1564 1424111328 986.5142
1565 1424115234 985.6852
1566 1424119140 988.3823
1567 1424123046 991.5416
1568 1424126953 986.8151
1569 1424130859 989.3385
1570 1424134765 988.7668
1571 1424138671 990.5432
1572 1424142578 989.7277
1573 1424146484 988.7034
1574 1424150390 992.1771
1575 1424154296 992.0463
1576 1424158203 989.7896
1577 1424162109 991.7666
1578 1424166015 994.6790
1579 1424169921 1000.4754
1580 1424173828 994.9838
1581 1424177734 994.3887
1582 1424181640 996.6343
1583 1424185546 994.9451
1584 1424189453 995.8061
1585 1424193359 1002.2416
1586 1424197265 1007.0577
1587 1424201171 1001.0288
1588 1424205078 1004.5969
1589 1424208984 1003.2859
1590 1424212890 1006.4623
1591 1424216796 1006.9727
1592 1424220703 1003.4884
1593 1424224609 1005.3350
1594 1424228515 1007.2100
1595 1424232421 1009.7194
1596 1424236328 1008.1791
1597 1424240234 1009.7477
1598 1424244140 1008.5152
1599 1424248046 1009.7058
1600 1424251953 1011.5757
1601 1424255859 1011.9370
1602 1424259765 1015.8576
1603 1424263671 1014.6022
1604 1424267578 1013.8236
1605 1424271484 1015.9593
1606 1424275390 1018.5992
1607 1424279296 1018.0479
1608 1424283203 1015.4943
1609 1424287109 1013.5396
1610 1424291015 1024.2064
1611 1424294921 1022.2955
1612 1424298828 1016.7657
1613 1424302734 1019.7352
1614 1424306640 1019.7888
1615 1424310546 1019.9355
1616 1424314453 1023.0122
1617 1424318359 1025.8373
1618 1424322265 1023.0813
1619 1424326171 1020.4777
1620 1424330078 1022.2750
1621 1424333984 1027.5520
1622 1424337890 1029.3325
1623 1424341796 1028.1147
1624 1424345703 1024.5366
1625 1424349609 1023.2940
1626 1424353515 1024.0673
1627 1424357421 1027.9437
1628 1424361328 1027.6349
1629 1424365234 1027.5420
1630 1424369140 1026.3119
1631 1424373046 1025.0073
1632 1424376953 1028.1139
1633 1424380859 1027.7307
1634 1424384765 1024.0237
1635 1424388671 1023.6834
1636 1424392578 1028.2173
1637 1424396484 1027.0463
1638 1424400390 1026.5168
1639 1424404296 1026.3010
1640 1424408203 1028.6466
1641 1424412109 1028.4678
1642 1424416015 1025.7964
1643 1424419921 1025.3091
1644 1424423828 1028.4130
1645 1424427734 1030.4999
1646 1424431640 1026.3300
1647 1424435546 1031.3610
1648 1424439453 1032.0204
1649 1424443359 1030.8654
1650 1424447265 1030.0453
1651 1424451171 1026.7247
1652 1424455078 1030.5482
1653 1424458984 1026.1826
1654 1424462890 1028.6624
1655 1424466796 1027.4673
1656 1424470703 1029.2040
1657 1424474609 1028.9600
1658 1424478515 1026.4363
1659 1424482421 1025.2621
1660 1424486328 1028.0477
1661 1424490234 1025.6615
1662 1424494140 1025.8745
1663 1424498046 1022.8755
1664 1424501953 1026.9695
1665 1424505859 1025.1515
1666 1424509765 1019.8692
1667 1424513671 1027.3693
1668 1424517578 1029.1537
1669 1424521484 1024.5287
1670 1424525390 1023.3358
1671 1424529296 1024.0400
1672 1424533203 1024.5729
1673 1424537109 1023.5615
1674 1424541015 1025.3284
1675 1424544921 1024.8441
1676 1424548828 1021.8931
1677 1424552734 1019.3481
1678 1424556640 1021.4523
1679 1424560546 1024.9114
1680 1424564453 1024.4252
1681 1424568359 1023.0082
1682 1424572265 1020.2825
1683 1424576171 1021.6431
1684 1424580078 1022.0374
1685 1424583984 1022.2552
1686 1424587890 1022.0554
1687 1424591796 1021.0717
1688 1424595703 1019.8430
1689 1424599609 1019.5811
1690 1424603515 1026.2089
1691 1424607421 1018.5134
1692 1424611328 1015.5533
1693 1424615234 1024.1520
1694 1424619140 1019.9756
1695 1424623046 1021.5259
1696 1424626953 1019.6212
1697 1424630859 1018.9402
1698 1424634765 1015.3228
1699 1424638671 1017.3602
1700 1424642578 1021.5892
1701 1424646484 1017.2352
1702 1424650390 1015.5045
1703 1424654296 1016.1082
1704 1424658203 1015.6741
1705 1424662109 1015.6857
1706 1424666015 1019.0460
1707 1424669921 1014.7461
1708 1424673828 1012.5997
1709 1424677734 1013.1957
1710 1424681640 1015.4043
1711 1424685546 1011.5735
1712 1424689453 1012.4893
1713 1424693359 1011.2846
1714 1424697265 1013.1182
1715 1424701171 1011.0281
1716 1424705078 1010.1403
1717 1424708984 1010.7772
1718 1424712890 1008.7679
1719 1424716796 1009.5746
1720 1424720703 1010.0802
1721 1424724609 1008.6573
1722 1424728515 1003.6671
1723 1424732421 1005.1732
1724 1424736328 1002.2307
1725 1424740234 1005.0157
1726 1424744140 1000.1445
1727 1424748046 1003.4933
1728 1424751953 1003.6857
1729 1424755859 999.0095
1730 1424759765 996.8281
1731 1424763671 995.1716
1732 1424767578 993.4241
1733 1424771484 997.8469
1734 1424775390 995.4089
1735 1424779296 992.4535
1736 1424783203 992.0723
1737 1424787109 989.0389
1738 1424791015 991.1532
1739 1424794921 986.0497
1740 1424798828 985.6458
1741 1424802734 988.0027
1742 1424806640 980.7615
1743 1424810546 984.4766
1744 1424814453 980.5094
1745 1424818359 979.9002
1746 1424822265 978.3825
1747 1424826171 976.1339
1748 1424830078 974.4885
1749 1424833984 978.8475
1750 1424837890 971.0390
1751 1424841796 973.2187
1752 1424845703 972.5598
1753 1424849609 967.4128
1754 1424853515 964.2476
1755 1424857421 966.6558
1756 1424861328 966.3256
1757 1424865234 963.9211
1758 1424869140 961.4329
1759 1424873046 960.7742
1760 1424876953 962.9514
1761 1424880859 960.5970
1762 1424884765 956.9116
1763 1424888671 955.0529
1764 1424892578 958.1566
1765 1424896484 953.1164
1766 1424900390 951.6242
1767 1424904296 947.8218
1768 1424908203 948.3337
1769 1424912109 945.9720
1770 1424916015 948.2740
1771 1424919921 943.8055
1772 1424923828 945.6558
1773 1424927734 944.7437
1774 1424931640 944.1274
1775 1424935546 943.2188
1776 1424939453 940.6815
1777 1424943359 940.2883
1778 1424947265 939.9391
1779 1424951171 937.1638
1780 1424955078 941.8038
1781 1424958984 940.4612
1782 1424962890 936.2567
1783 1424966796 940.6540
1784 1424970703 939.2155
1785 1424974609 938.5514
1786 1424978515 937.5950
1787 1424982421 936.8019
1788 1424986328 938.3475
1789 1424990234 938.1189
1790 1424994140 937.7420
1791 1424998046 941.6905
1792 1425001953 948.4534
1793 1425005859 991.4119
1794 1425009765 989.7352
1795 1425013671 944.6104
1796 1425017578 944.9337
1797 1425021484 947.1703
1798 1425025390 948.6191
1799 1425029296 946.3316
1800 1425033203 949.8348
1801 1425037109 952.5887
1802 1425041015 951.3082
1803 1425044921 952.7751
1804 1425048828 950.2808
1805 1425052734 954.9924
1806 1425056640 958.6979
1807 1425060546 958.8231
1808 1425064453 966.9047
1809 1425068359 963.6842
1810 1425072265 966.8480
1811 1425076171 966.3304
1812 1425080078 973.4141
1813 1425083984 972.3190
1814 1425087890 972.5339
1815 1425091796 979.4174
1816 1425095703 984.4973
1817 1425099609 981.8621
1818 1425103515 986.6392
1819 1425107421 987.8724
1820 1425111328 993.8527
1821 1425115234 996.2466
1822 1425119140 994.9418
1823 1425123046 999.7067
1824 1425126953 1006.2229
1825 1425130859 1009.8443
1826 1425134765 1014.3316
1827 1425138671 1016.9528
1828 1425142578 1018.2387
1829 1425146484 1022.3047
1830 1425150390 1024.6954
1831 1425154296 1024.7617
1832 1425158203 1028.8016
1833 1425162109 1029.9323
1834 1425166015 1031.3911
1835 1425169921 1035.3540
1836 1425173828 1039.8999
1837 1425177734 1047.3651
1838 1425181640 1047.5428
1839 1425185546 1044.6086
1840 1425189453 1050.4677
1841 1425193359 1050.4047
1842 1425197265 1053.8201
1843 1425201171 1053.3545
1844 1425205078 1055.3353
1845 1425208984 1058.6422
1846 1425212890 1057.4432
1847 1425216796 1065.6116
1848 1425220703 1065.0447
1849 1425224609 1067.3395
1850 1425228515 1067.0255
1851 1425232421 1063.3606
1852 1425236328 1067.4744
1853 1425240234 1065.5328
1854 1425244140 1062.7432
1855 1425248046 1066.8447
1856 1425251953 1063.2937
1857 1425255859 1064.8182
1858 1425259765 1065.8750
1859 1425263671 1062.8511
1860 1425267578 1061.4333
1861 1425271484 1058.9508
1862 1425275390 1053.8228
1863 1425279296 1047.9597
1864 1425283203 1048.7767
1865 1425287109 1047.1198
1866 1425291015 1041.0160
1867 1425294921 1038.8035
1868 1425298828 1032.7064
1869 1425302734 1028.4366
1870 1425306640 1019.7421
1871 1425310546 1018.0867
1872 1425314453 1008.9448
1873 1425318359 1004.6821
1874 1425322265 999.5208
1875 1425326171 994.2454
1876 1425330078 984.4991
1877 1425333984 980.4571
1878 1425337890 971.9823
1879 1425341796 960.5494
1880 1425345703 949.7411
1881 1425349609 942.7873
1882 1425353515 931.4636
1883 1425357421 922.4893
1884 1425361328 910.0649
1885 1425365234 900.4547
1886 1425369140 889.8990
1887 1425373046 876.3345
1888 1425376953 865.7825
1889 1425380859 852.7188
1890 1425384765 840.9172
1891 1425388671 831.0854
1892 1425392578 813.8700
1893 1425396484 801.8089
1894 1425400390 787.6273
1895 1425404296 771.7982
1896 1425408203 757.5695
1897 1425412109 747.9363
1898 1425416015 731.3156
1899 1425419921 716.9044
1900 1425423828 704.4968
1901 1425427734 686.5508
1902 1425431640 672.4287
1903 1425435546 657.3782
1904 1425439453 641.7228
1905 1425443359 624.8622
1906 1425447265 610.0494
1907 1425451171 593.1670
1908 1425455078 580.4158
1909 1425458984 561.6060
1910 1425462890 549.1531
1911 1425466796 532.3803
1912 1425470703 515.7521
1913 1425474609 498.4522
1914 1425478515 484.3827
1915 1425482421 472.1389
1916 1425486328 455.2829
1917 1425490234 439.1334
1918 1425494140 423.7139
1919 1425498046 409.2253
1920 1425501953 394.0701
1921 1425505859 379.5013
1922 1425509765 365.4888
1923 1425513671 350.3449
1924 1425517578 336.9166
1925 1425521484 324.0435
1926 1425525390 309.3789
1927 1425529296 297.1537
1928 1425533203 284.0548
1929 1425537109 272.3299
1930 1425541015 259.6487
1931 1425544921 246.2872
1932 1425548828 235.5651
1933 1425552734 223.8641
1934 1425556640 212.8613
1935 1425560546 201.6806
1936 1425564453 190.6122
1937 1425568359 181.5042
1938 1425572265 170.9919
1939 1425576171 162.7643
1940 1425580078 153.0244
1941 1425583984 144.5304
1942 1425587890 135.5952
1943 1425591796 127.2579
1944 1425595703 119.5527
1945 1425599609 111.5397
1946 1425603515 105.1247
1947 1425607421 98.0799
1948 1425611328 91.5433
1949 1425615234 84.6323
1950 1425619140 79.2619
1951 1425623046 73.4587
1952 1425626953 68.0372
1953 1425630859 62.8339
1954 1425634765 58.3696
1955 1425638671 53.5874
1956 1425642578 49.3494
1957 1425646484 45.4489
1958 1425650390 41.5626
1959 1425654296 37.9179
1960 1425658203 34.6944
1961 1425662109 31.5038
1962 1425666015 28.7126
1963 1425669921 25.8637
1964 1425673828 23.4779
1965 1425677734 21.1222
1966 1425681640 19.0030
1967 1425685546 16.9494
1968 1425689453 15.1654
1969 1425693359 13.5151
1970 1425697265 11.9914
1971 1425701171 10.5749
1972 1425705078 9.3356
1973 1425708984 8.1488
1974 1425712890 7.1102
1975 1425716796 6.1400
1976 1425720703 5.3412
1977 1425724609 4.5947
1978 1425728515 3.9047
1979 1425732421 3.2999
1980 1425736328 2.7750
1981 1425740234 2.3072
1982 1425744140 1.8963
1983 1425748046 1.5471
1984 1425751953 1.2425
1985 1425755859 0.9843
1986 1425759765 0.7692
1987 1425763671 0.5858
1988 1425767578 0.4351
1989 1425771484 0.3136
1990 1425775390 0.2200
1991 1425779296 0.1469
1992 1425783203 0.0943
1993 1425787109 0.0597
1994 1425791015 0.0395
1995 1425794921 0.0324
1996 1425798828 0.0361
1997 1425802734 0.0492
1998 1425806640 0.0696
1999 1425810546 0.0962
2000 1425814453 0.1282
2001 1425818359 0.1629
2002 1425822265 0.1999
2003 1425826171 0.2401
2004 1425830078 0.2819
2005 1425833984 0.3220
2006 1425837890 0.3641
2007 1425841796 0.4028
2008 1425845703 0.4431
2009 1425849609 0.4791
2010 1425853515 0.5164
2011 1425857421 0.5505
2012 1425861328 0.5838
2013 1425865234 0.6132
2014 1425869140 0.6393
2015 1425873046 0.6665
2016 1425876953 0.6942
2017 1425880859 0.7125
2018 1425884765 0.7325
2019 1425888671 0.7513
2020 1425892578 0.7687
2021 1425896484 0.7839
2022 1425900390 0.7911
2023 1425904296 0.8036
2024 1425908203 0.8116
2025 1425912109 0.8185
2026 1425916015 0.8267
2027 1425919921 0.8319
2028 1425923828 0.8332
2029 1425927734 0.8421
2030 1425931640 0.8423
2031 1425935546 0.8471
2032 1425939453 0.8439
2033 1425943359 0.8396
2034 1425947265 0.8455
2035 1425951171 0.8451
2036 1425955078 0.8450
2037 1425958984 0.8411
2038 1425962890 0.8459
2039 1425966796 0.8409
2040 1425970703 0.8414
2041 1425974609 0.8398
2042 1425978515 0.8401
2043 1425982421 0.8414
2044 1425986328 0.8384
2045 1425990234 0.8380
2046 1425994140 0.8374
2047 1425998046 0.8425
