# File: 20-11-28T181329.hot
# NOTEA     = RSP1A+GPIOLabs Pi #1 On Horn
# NOTEB     = Sdrplay 8 MHz Test
# OBSERVER  = Science Aficionado
# DEVICE    = SDRPlay RSP1A
# DATADIR   = ../data/
# SITE      = RSP1A+GPIOLabs Pi #1 On Horn
# CITY      = Green Bank
# REGION    = West Virginia
# COUNTRY   = US
# TELTYPE   = Bubble Wrap  Horn
# FRAME     = TOPO
# GAIN1     = 0.0
# GAIN2     = 12.0
# GAIN3     = 12.0
# GAIN4     = 0.0
# Count     = 360000
# CenterFreq= 1422000000.0
# Bandwidth = 8000000.0
# Duration  = 157.130513
# DeltaX    = 5859.375
# TSYS      = 200.0
# TRX       = 100.0
# TRMS      = 2.0
# TINT      = 1.0
# KPERC     = 100.0
# GAINFACT  = 1.0
# BUNIT     = Counts
# NCHAN     = 2048
# NSPEC     = 1
# NTIME     = 0
# NSAMPLES  = 0
# EPEAK     = 4.10875183718
# ERMS      = 0.995973393526
# EMJD      = 58568.808999981004 
# REFCHAN   = 1024.0
# REFSAMPL  = 256.0
# NAVE      = 600
# NMEDIAN   = 1024
# Fft_rate  = 5000
# UTC       = 2020-11-28 18:13:29.201890
# SECONDS   =       0.0000000000 
# LST       = 17:26:31.810
# AZ        = 180.0
# EL        = -40.0
# TELLON    = -79:50:22.920
# TELLAT    = +38:25:59.160
# RA        = 05:57:29.830
# DEC       = -88:27:11.300
# GALLON    = 301:14:11.00
# GALLAT    = -27:28:43.60
# ALT_SUN   = +28:09:23.1
# AZ_SUN    = +197:25:23.6
# ETAA      = 0.8
# ETAB      = 0.99
# POLANGLE  = 0.0
# TELSIZEAM = 1.0
# TELSIZEBM = 1.0
# AST_VERS  = 05.01
0000 1418001953 0.8416
0001 1418005859 0.8445
0002 1418009765 0.8464
0003 1418013671 0.8455
0004 1418017578 0.8482
0005 1418021484 0.8504
0006 1418025390 0.8530
0007 1418029296 0.8563
0008 1418033203 0.8590
0009 1418037109 0.8621
0010 1418041015 0.8640
0011 1418044921 0.8665
0012 1418048828 0.8650
0013 1418052734 0.8662
0014 1418056640 0.8674
0015 1418060546 0.8702
0016 1418064453 0.8707
0017 1418068359 0.8744
0018 1418072265 0.8707
0019 1418076171 0.8696
0020 1418080078 0.8658
0021 1418083984 0.8630
0022 1418087890 0.8595
0023 1418091796 0.8524
0024 1418095703 0.8489
0025 1418099609 0.8379
0026 1418103515 0.8262
0027 1418107421 0.8160
0028 1418111328 0.8012
0029 1418115234 0.7897
0030 1418119140 0.7678
0031 1418123046 0.7492
0032 1418126953 0.7240
0033 1418130859 0.7008
0034 1418134765 0.6736
0035 1418138671 0.6470
0036 1418142578 0.6114
0037 1418146484 0.5800
0038 1418150390 0.5450
0039 1418154296 0.5060
0040 1418158203 0.4637
0041 1418162109 0.4235
0042 1418166015 0.3825
0043 1418169921 0.3383
0044 1418173828 0.2958
0045 1418177734 0.2526
0046 1418181640 0.2107
0047 1418185546 0.1708
0048 1418189453 0.1340
0049 1418193359 0.1000
0050 1418197265 0.0721
0051 1418201171 0.0508
0052 1418205078 0.0370
0053 1418208984 0.0331
0054 1418212890 0.0405
0055 1418216796 0.0614
0056 1418220703 0.0986
0057 1418224609 0.1541
0058 1418228515 0.2298
0059 1418232421 0.3305
0060 1418236328 0.4587
0061 1418240234 0.6159
0062 1418244140 0.8114
0063 1418248046 1.0383
0064 1418251953 1.3192
0065 1418255859 1.6385
0066 1418259765 2.0218
0067 1418263671 2.4450
0068 1418267578 2.9332
0069 1418271484 3.5056
0070 1418275390 4.1119
0071 1418279296 4.8464
0072 1418283203 5.6539
0073 1418287109 6.5643
0074 1418291015 7.5426
0075 1418294921 8.6512
0076 1418298828 9.8503
0077 1418302734 11.2378
0078 1418306640 12.6992
0079 1418310546 14.2956
0080 1418314453 16.0550
0081 1418318359 18.0250
0082 1418322265 20.0155
0083 1418326171 22.4393
0084 1418330078 24.7853
0085 1418333984 27.4224
0086 1418337890 30.4256
0087 1418341796 33.3923
0088 1418345703 36.5982
0089 1418349609 40.2387
0090 1418353515 43.9087
0091 1418357421 47.9063
0092 1418361328 52.2312
0093 1418365234 56.8764
0094 1418369140 61.5256
0095 1418373046 66.4577
0096 1418376953 71.9887
0097 1418380859 77.7529
0098 1418384765 83.8270
0099 1418388671 89.9812
0100 1418392578 97.0437
0101 1418396484 103.4934
0102 1418400390 110.9692
0103 1418404296 118.4958
0104 1418408203 126.4107
0105 1418412109 135.0498
0106 1418416015 143.8468
0107 1418419921 152.5210
0108 1418423828 162.2633
0109 1418427734 172.3909
0110 1418431640 181.3602
0111 1418435546 191.1676
0112 1418439453 203.5641
0113 1418443359 215.3756
0114 1418447265 225.5717
0115 1418451171 238.3096
0116 1418455078 250.7807
0117 1418458984 261.4455
0118 1418462890 275.6401
0119 1418466796 287.0835
0120 1418470703 301.8262
0121 1418474609 314.9922
0122 1418478515 329.6716
0123 1418482421 342.8545
0124 1418486328 358.0239
0125 1418490234 373.0077
0126 1418494140 388.0778
0127 1418498046 404.3185
0128 1418501953 418.4818
0129 1418505859 434.9884
0130 1418509765 450.1902
0131 1418513671 466.4290
0132 1418517578 483.5243
0133 1418521484 498.4447
0134 1418525390 515.9628
0135 1418529296 533.1689
0136 1418533203 547.7703
0137 1418537109 564.3092
0138 1418541015 580.6218
0139 1418544921 597.6768
0140 1418548828 615.0116
0141 1418552734 632.4536
0142 1418556640 648.5925
0143 1418560546 665.5386
0144 1418564453 679.3367
0145 1418568359 698.2970
0146 1418572265 711.8677
0147 1418576171 727.1163
0148 1418580078 744.7677
0149 1418583984 763.1339
0150 1418587890 779.0497
0151 1418591796 792.7251
0152 1418595703 808.2219
0153 1418599609 822.1753
0154 1418603515 835.2760
0155 1418607421 852.4429
0156 1418611328 866.4643
0157 1418615234 880.0147
0158 1418619140 890.5757
0159 1418623046 908.0230
0160 1418626953 917.1600
0161 1418630859 927.7527
0162 1418634765 943.8271
0163 1418638671 953.8397
0164 1418642578 964.3574
0165 1418646484 977.5273
0166 1418650390 989.9889
0167 1418654296 999.6627
0168 1418658203 1011.5760
0169 1418662109 1018.5058
0170 1418666015 1025.9091
0171 1418669921 1034.1915
0172 1418673828 1050.0708
0173 1418677734 1053.4637
0174 1418681640 1063.2096
0175 1418685546 1071.6573
0176 1418689453 1072.9709
0177 1418693359 1077.8246
0178 1418697265 1085.4720
0179 1418701171 1090.9459
0180 1418705078 1098.0398
0181 1418708984 1105.4120
0182 1418712890 1109.1791
0183 1418716796 1108.5446
0184 1418720703 1111.4841
0185 1418724609 1121.4861
0186 1418728515 1123.1688
0187 1418732421 1124.0588
0188 1418736328 1127.6895
0189 1418740234 1130.7242
0190 1418744140 1134.4534
0191 1418748046 1133.7576
0192 1418751953 1133.2491
0193 1418755859 1131.7274
0194 1418759765 1132.2030
0195 1418763671 1137.4534
0196 1418767578 1138.9556
0197 1418771484 1129.7417
0198 1418775390 1130.1488
0199 1418779296 1134.2275
0200 1418783203 1131.7500
0201 1418787109 1129.5278
0202 1418791015 1128.7677
0203 1418794921 1130.4596
0204 1418798828 1122.3075
0205 1418802734 1124.8228
0206 1418806640 1124.6046
0207 1418810546 1118.3882
0208 1418814453 1115.1174
0209 1418818359 1114.4730
0210 1418822265 1108.3701
0211 1418826171 1106.1249
0212 1418830078 1105.4515
0213 1418833984 1098.3807
0214 1418837890 1098.1487
0215 1418841796 1094.1282
0216 1418845703 1090.7317
0217 1418849609 1090.3480
0218 1418853515 1089.9481
0219 1418857421 1082.9324
0220 1418861328 1082.4011
0221 1418865234 1075.0881
0222 1418869140 1073.4170
0223 1418873046 1068.6793
0224 1418876953 1068.8906
0225 1418880859 1061.0864
0226 1418884765 1058.5366
0227 1418888671 1057.9786
0228 1418892578 1056.5656
0229 1418896484 1049.3059
0230 1418900390 1045.7786
0231 1418904296 1047.7218
0232 1418908203 1042.2941
0233 1418912109 1042.0648
0234 1418916015 1037.9122
0235 1418919921 1034.1080
0236 1418923828 1030.8701
0237 1418927734 1030.8623
0238 1418931640 1025.1813
0239 1418935546 1024.9532
0240 1418939453 1020.8281
0241 1418943359 1017.8049
0242 1418947265 1015.0507
0243 1418951171 1013.3888
0244 1418955078 1015.8607
0245 1418958984 1011.5371
0246 1418962890 1010.7758
0247 1418966796 1006.8516
0248 1418970703 1004.7600
0249 1418974609 1009.2019
0250 1418978515 1001.7609
0251 1418982421 1000.1780
0252 1418986328 1004.6359
0253 1418990234 999.8456
0254 1418994140 998.5786
0255 1418998046 997.8378
0256 1419001953 999.1086
0257 1419005859 998.1692
0258 1419009765 994.8221
0259 1419013671 997.3873
0260 1419017578 997.1904
0261 1419021484 995.6097
0262 1419025390 999.2110
0263 1419029296 996.3239
0264 1419033203 993.4646
0265 1419037109 996.9882
0266 1419041015 994.6051
0267 1419044921 996.6013
0268 1419048828 996.6079
0269 1419052734 992.5697
0270 1419056640 999.0745
0271 1419060546 996.8445
0272 1419064453 995.9808
0273 1419068359 1001.8667
0274 1419072265 1000.3992
0275 1419076171 1002.5833
0276 1419080078 999.8994
0277 1419083984 1002.5814
0278 1419087890 1003.9392
0279 1419091796 1006.7594
0280 1419095703 1007.8696
0281 1419099609 1010.6080
0282 1419103515 1010.5746
0283 1419107421 1009.8996
0284 1419111328 1008.4524
0285 1419115234 1008.4346
0286 1419119140 1013.4072
0287 1419123046 1015.2706
0288 1419126953 1015.0115
0289 1419130859 1019.4785
0290 1419134765 1020.7001
0291 1419138671 1021.8410
0292 1419142578 1020.9691
0293 1419146484 1020.7401
0294 1419150390 1023.7311
0295 1419154296 1022.7310
0296 1419158203 1028.3909
0297 1419162109 1025.2153
0298 1419166015 1031.3052
0299 1419169921 1029.7861
0300 1419173828 1029.1681
0301 1419177734 1033.4000
0302 1419181640 1038.6394
0303 1419185546 1038.5345
0304 1419189453 1041.9769
0305 1419193359 1040.0424
0306 1419197265 1040.2740
0307 1419201171 1043.2134
0308 1419205078 1041.9292
0309 1419208984 1043.4037
0310 1419212890 1043.0109
0311 1419216796 1044.0532
0312 1419220703 1048.9138
0313 1419224609 1047.6233
0314 1419228515 1053.7675
0315 1419232421 1051.8303
0316 1419236328 1053.7184
0317 1419240234 1051.8513
0318 1419244140 1053.5989
0319 1419248046 1058.6409
0320 1419251953 1055.9109
0321 1419255859 1057.2357
0322 1419259765 1059.3368
0323 1419263671 1056.4318
0324 1419267578 1058.7043
0325 1419271484 1058.8239
0326 1419275390 1062.7224
0327 1419279296 1063.1389
0328 1419283203 1058.3647
0329 1419287109 1067.1294
0330 1419291015 1062.2920
0331 1419294921 1062.6243
0332 1419298828 1067.3981
0333 1419302734 1063.2123
0334 1419306640 1068.5720
0335 1419310546 1065.0797
0336 1419314453 1067.7172
0337 1419318359 1068.5894
0338 1419322265 1071.7704
0339 1419326171 1071.3464
0340 1419330078 1068.5482
0341 1419333984 1072.9799
0342 1419337890 1070.9132
0343 1419341796 1068.9747
0344 1419345703 1072.9510
0345 1419349609 1074.5780
0346 1419353515 1068.9788
0347 1419357421 1069.4087
0348 1419361328 1071.4155
0349 1419365234 1071.5275
0350 1419369140 1077.4203
0351 1419373046 1071.5856
0352 1419376953 1072.1224
0353 1419380859 1072.3406
0354 1419384765 1068.0902
0355 1419388671 1072.2089
0356 1419392578 1076.6460
0357 1419396484 1074.5265
0358 1419400390 1075.1267
0359 1419404296 1073.0947
0360 1419408203 1069.8552
0361 1419412109 1072.8696
0362 1419416015 1073.2478
0363 1419419921 1071.1633
0364 1419423828 1071.7786
0365 1419427734 1075.9962
0366 1419431640 1070.4985
0367 1419435546 1071.8192
0368 1419439453 1073.8975
0369 1419443359 1077.2438
0370 1419447265 1077.4200
0371 1419451171 1074.9253
0372 1419455078 1076.9622
0373 1419458984 1076.4237
0374 1419462890 1076.0770
0375 1419466796 1076.4901
0376 1419470703 1077.9105
0377 1419474609 1075.8839
0378 1419478515 1075.7588
0379 1419482421 1075.6533
0380 1419486328 1079.0996
0381 1419490234 1078.8416
0382 1419494140 1074.7791
0383 1419498046 1070.8198
0384 1419501953 1075.2542
0385 1419505859 1075.0819
0386 1419509765 1075.6641
0387 1419513671 1074.6987
0388 1419517578 1079.5530
0389 1419521484 1077.4049
0390 1419525390 1077.1545
0391 1419529296 1077.7592
0392 1419533203 1079.3137
0393 1419537109 1078.0876
0394 1419541015 1077.2076
0395 1419544921 1078.5702
0396 1419548828 1079.1039
0397 1419552734 1078.5201
0398 1419556640 1077.1906
0399 1419560546 1079.0504
0400 1419564453 1076.7634
0401 1419568359 1079.4417
0402 1419572265 1081.3297
0403 1419576171 1079.2367
0404 1419580078 1076.9108
0405 1419583984 1080.8552
0406 1419587890 1081.5518
0407 1419591796 1081.0383
0408 1419595703 1081.1478
0409 1419599609 1080.1074
0410 1419603515 1080.9874
0411 1419607421 1079.2611
0412 1419611328 1077.6880
0413 1419615234 1076.0243
0414 1419619140 1078.9050
0415 1419623046 1077.3044
0416 1419626953 1080.5363
0417 1419630859 1077.7736
0418 1419634765 1078.1353
0419 1419638671 1074.8149
0420 1419642578 1077.8682
0421 1419646484 1074.0709
0422 1419650390 1077.1224
0423 1419654296 1076.4708
0424 1419658203 1075.3679
0425 1419662109 1078.4216
0426 1419666015 1073.4623
0427 1419669921 1069.5431
0428 1419673828 1076.8589
0429 1419677734 1077.5471
0430 1419681640 1071.3234
0431 1419685546 1069.9980
0432 1419689453 1063.8367
0433 1419693359 1067.9355
0434 1419697265 1072.6565
0435 1419701171 1069.9421
0436 1419705078 1071.1989
0437 1419708984 1068.0974
0438 1419712890 1067.0597
0439 1419716796 1062.4994
0440 1419720703 1063.0229
0441 1419724609 1060.1041
0442 1419728515 1061.3344
0443 1419732421 1058.3038
0444 1419736328 1060.6630
0445 1419740234 1057.6969
0446 1419744140 1056.7687
0447 1419748046 1062.8557
0448 1419751953 1058.9332
0449 1419755859 1055.8596
0450 1419759765 1056.4778
0451 1419763671 1054.0990
0452 1419767578 1052.0931
0453 1419771484 1048.9083
0454 1419775390 1050.3201
0455 1419779296 1048.6882
0456 1419783203 1047.6406
0457 1419787109 1047.2864
0458 1419791015 1046.9608
0459 1419794921 1043.3274
0460 1419798828 1046.8287
0461 1419802734 1045.1257
0462 1419806640 1040.3129
0463 1419810546 1042.3644
0464 1419814453 1041.6125
0465 1419818359 1042.2076
0466 1419822265 1040.3004
0467 1419826171 1038.5105
0468 1419830078 1035.5695
0469 1419833984 1033.2438
0470 1419837890 1034.0496
0471 1419841796 1031.3372
0472 1419845703 1032.4608
0473 1419849609 1037.2241
0474 1419853515 1030.2351
0475 1419857421 1032.2229
0476 1419861328 1030.0542
0477 1419865234 1028.3674
0478 1419869140 1031.4364
0479 1419873046 1030.9408
0480 1419876953 1026.3934
0481 1419880859 1025.6572
0482 1419884765 1025.4454
0483 1419888671 1029.3842
0484 1419892578 1024.6875
0485 1419896484 1023.4760
0486 1419900390 1026.0768
0487 1419904296 1026.0100
0488 1419908203 1020.0726
0489 1419912109 1023.3289
0490 1419916015 1023.1747
0491 1419919921 1020.9743
0492 1419923828 1020.9713
0493 1419927734 1022.2851
0494 1419931640 1023.2449
0495 1419935546 1017.8758
0496 1419939453 1018.9184
0497 1419943359 1021.5848
0498 1419947265 1018.2737
0499 1419951171 1019.4143
0500 1419955078 1014.8732
0501 1419958984 1016.8053
0502 1419962890 1020.4501
0503 1419966796 1018.2443
0504 1419970703 1015.3109
0505 1419974609 1021.0290
0506 1419978515 1018.6639
0507 1419982421 1015.5337
0508 1419986328 1016.2338
0509 1419990234 1015.7935
0510 1419994140 1016.0640
0511 1419998046 1016.7795
0512 1420001953 1020.7535
0513 1420005859 1019.7277
0514 1420009765 1017.9061
0515 1420013671 1018.3167
0516 1420017578 1020.5609
0517 1420021484 1018.8250
0518 1420025390 1018.5782
0519 1420029296 1018.2939
0520 1420033203 1017.5016
0521 1420037109 1014.9576
0522 1420041015 1014.8994
0523 1420044921 1018.1628
0524 1420048828 1017.9070
0525 1420052734 1018.4840
0526 1420056640 1016.6025
0527 1420060546 1015.6494
0528 1420064453 1018.7166
0529 1420068359 1020.0624
0530 1420072265 1019.7687
0531 1420076171 1019.0254
0532 1420080078 1018.0090
0533 1420083984 1021.1633
0534 1420087890 1018.7661
0535 1420091796 1021.9620
0536 1420095703 1017.7346
0537 1420099609 1016.6007
0538 1420103515 1017.8080
0539 1420107421 1018.4511
0540 1420111328 1019.7977
0541 1420115234 1023.2481
0542 1420119140 1020.5471
0543 1420123046 1014.6714
0544 1420126953 1022.0603
0545 1420130859 1020.8849
0546 1420134765 1023.1819
0547 1420138671 1019.2748
0548 1420142578 1019.6597
0549 1420146484 1018.7859
0550 1420150390 1019.2797
0551 1420154296 1017.7573
0552 1420158203 1021.9637
0553 1420162109 1020.0195
0554 1420166015 1020.5516
0555 1420169921 1018.2413
0556 1420173828 1018.5325
0557 1420177734 1021.9862
0558 1420181640 1018.1986
0559 1420185546 1015.6417
0560 1420189453 1019.8546
0561 1420193359 1016.0093
0562 1420197265 1015.7664
0563 1420201171 1017.8952
0564 1420205078 1016.0222
0565 1420208984 1015.8399
0566 1420212890 1017.2052
0567 1420216796 1016.5258
0568 1420220703 1012.6292
0569 1420224609 1015.6569
0570 1420228515 1013.0175
0571 1420232421 1015.0875
0572 1420236328 1011.8696
0573 1420240234 1013.1554
0574 1420244140 1011.8350
0575 1420248046 1008.5633
0576 1420251953 1007.5463
0577 1420255859 1008.9677
0578 1420259765 1008.1310
0579 1420263671 1007.4765
0580 1420267578 1009.6005
0581 1420271484 1007.2538
0582 1420275390 1012.0258
0583 1420279296 1007.4810
0584 1420283203 1007.2311
0585 1420287109 1006.1826
0586 1420291015 1007.0443
0587 1420294921 1005.3790
0588 1420298828 1002.5378
0589 1420302734 1003.2201
0590 1420306640 1009.0046
0591 1420310546 1004.8967
0592 1420314453 1001.8480
0593 1420318359 998.4836
0594 1420322265 1000.9470
0595 1420326171 1001.3963
0596 1420330078 1004.0308
0597 1420333984 1001.9655
0598 1420337890 1000.8461
0599 1420341796 1001.8962
0600 1420345703 999.6951
0601 1420349609 998.5331
0602 1420353515 1000.5444
0603 1420357421 996.8584
0604 1420361328 996.2006
0605 1420365234 993.4548
0606 1420369140 997.6226
0607 1420373046 998.3314
0608 1420376953 1000.7998
0609 1420380859 995.6429
0610 1420384765 994.6492
0611 1420388671 994.9661
0612 1420392578 994.1075
0613 1420396484 995.5141
0614 1420400390 991.4091
0615 1420404296 992.3480
0616 1420408203 992.3931
0617 1420412109 991.4037
0618 1420416015 991.5858
0619 1420419921 987.2676
0620 1420423828 986.9878
0621 1420427734 986.6586
0622 1420431640 989.3248
0623 1420435546 987.0309
0624 1420439453 986.4454
0625 1420443359 988.9573
0626 1420447265 984.5581
0627 1420451171 983.9368
0628 1420455078 984.4003
0629 1420458984 982.8187
0630 1420462890 982.9678
0631 1420466796 984.7748
0632 1420470703 981.7543
0633 1420474609 983.7529
0634 1420478515 986.3456
0635 1420482421 985.6578
0636 1420486328 978.5446
0637 1420490234 981.9366
0638 1420494140 981.2148
0639 1420498046 985.2526
0640 1420501953 980.6312
0641 1420505859 981.6870
0642 1420509765 983.9596
0643 1420513671 985.7062
0644 1420517578 980.1838
0645 1420521484 985.4750
0646 1420525390 983.5239
0647 1420529296 984.6574
0648 1420533203 985.9472
0649 1420537109 981.9489
0650 1420541015 984.7952
0651 1420544921 983.8632
0652 1420548828 985.6277
0653 1420552734 990.2527
0654 1420556640 985.2600
0655 1420560546 983.9546
0656 1420564453 980.1926
0657 1420568359 988.4872
0658 1420572265 981.2119
0659 1420576171 986.3520
0660 1420580078 979.8636
0661 1420583984 984.9193
0662 1420587890 987.4064
0663 1420591796 981.2739
0664 1420595703 984.6103
0665 1420599609 981.8180
0666 1420603515 982.9357
0667 1420607421 981.9631
0668 1420611328 984.2847
0669 1420615234 983.5142
0670 1420619140 982.6509
0671 1420623046 983.1400
0672 1420626953 984.6831
0673 1420630859 986.2598
0674 1420634765 983.4472
0675 1420638671 983.5351
0676 1420642578 985.8005
0677 1420646484 980.2299
0678 1420650390 981.2533
0679 1420654296 981.1324
0680 1420658203 981.9062
0681 1420662109 983.3766
0682 1420666015 980.8798
0683 1420669921 979.8657
0684 1420673828 984.5322
0685 1420677734 987.2493
0686 1420681640 982.4471
0687 1420685546 980.8607
0688 1420689453 978.6940
0689 1420693359 978.9433
0690 1420697265 978.4269
0691 1420701171 978.7349
0692 1420705078 976.5039
0693 1420708984 977.2832
0694 1420712890 977.9252
0695 1420716796 978.4092
0696 1420720703 976.0065
0697 1420724609 978.5790
0698 1420728515 980.2899
0699 1420732421 975.6971
0700 1420736328 975.0679
0701 1420740234 977.9175
0702 1420744140 976.3706
0703 1420748046 976.9540
0704 1420751953 975.8523
0705 1420755859 973.6871
0706 1420759765 973.7818
0707 1420763671 974.7391
0708 1420767578 971.8794
0709 1420771484 969.7505
0710 1420775390 974.5355
0711 1420779296 971.4500
0712 1420783203 971.2954
0713 1420787109 970.5551
0714 1420791015 970.1550
0715 1420794921 969.7829
0716 1420798828 967.4905
0717 1420802734 967.1311
0718 1420806640 970.8178
0719 1420810546 964.4658
0720 1420814453 963.2299
0721 1420818359 964.8271
0722 1420822265 964.5199
0723 1420826171 967.3884
0724 1420830078 964.0073
0725 1420833984 964.5945
0726 1420837890 966.7839
0727 1420841796 962.1454
0728 1420845703 963.0843
0729 1420849609 964.7161
0730 1420853515 966.9368
0731 1420857421 963.9738
0732 1420861328 963.9208
0733 1420865234 963.7429
0734 1420869140 964.0744
0735 1420873046 956.2913
0736 1420876953 962.4308
0737 1420880859 966.1011
0738 1420884765 962.8276
0739 1420888671 959.8262
0740 1420892578 959.8380
0741 1420896484 961.6589
0742 1420900390 963.0750
0743 1420904296 965.1248
0744 1420908203 963.9576
0745 1420912109 964.5031
0746 1420916015 964.0906
0747 1420919921 969.9679
0748 1420923828 969.0999
0749 1420927734 968.0852
0750 1420931640 963.3693
0751 1420935546 964.8811
0752 1420939453 967.3649
0753 1420943359 968.5726
0754 1420947265 969.7465
0755 1420951171 973.0425
0756 1420955078 972.6499
0757 1420958984 971.5842
0758 1420962890 971.0125
0759 1420966796 968.2055
0760 1420970703 968.9047
0761 1420974609 971.6620
0762 1420978515 976.7612
0763 1420982421 972.5842
0764 1420986328 976.8443
0765 1420990234 974.6266
0766 1420994140 979.3821
0767 1420998046 978.3047
0768 1421001953 982.7930
0769 1421005859 982.3138
0770 1421009765 981.3568
0771 1421013671 981.8926
0772 1421017578 984.2113
0773 1421021484 986.5015
0774 1421025390 987.3077
0775 1421029296 987.9835
0776 1421033203 990.3492
0777 1421037109 988.6920
0778 1421041015 991.0458
0779 1421044921 988.8459
0780 1421048828 989.8270
0781 1421052734 994.9724
0782 1421056640 994.4950
0783 1421060546 998.9805
0784 1421064453 994.9990
0785 1421068359 995.0640
0786 1421072265 998.5219
0787 1421076171 1004.1810
0788 1421080078 997.5356
0789 1421083984 1004.5921
0790 1421087890 999.5404
0791 1421091796 1006.5264
0792 1421095703 1003.7554
0793 1421099609 1003.1827
0794 1421103515 1006.1237
0795 1421107421 1005.6841
0796 1421111328 1006.1398
0797 1421115234 1005.9745
0798 1421119140 1002.6049
0799 1421123046 1006.0553
0800 1421126953 1009.7277
0801 1421130859 1009.1685
0802 1421134765 1008.3731
0803 1421138671 1011.8973
0804 1421142578 1012.6833
0805 1421146484 1009.6829
0806 1421150390 1010.3317
0807 1421154296 1012.3209
0808 1421158203 1015.7463
0809 1421162109 1013.2614
0810 1421166015 1014.9608
0811 1421169921 1013.5280
0812 1421173828 1012.8915
0813 1421177734 1011.2209
0814 1421181640 1011.2000
0815 1421185546 1014.0930
0816 1421189453 1015.6821
0817 1421193359 1012.1183
0818 1421197265 1012.8553
0819 1421201171 1013.7641
0820 1421205078 1014.6430
0821 1421208984 1016.6748
0822 1421212890 1010.1733
0823 1421216796 1008.8737
0824 1421220703 1015.3676
0825 1421224609 1012.6758
0826 1421228515 1016.2905
0827 1421232421 1010.6462
0828 1421236328 1008.7471
0829 1421240234 1006.4559
0830 1421244140 1008.0005
0831 1421248046 1008.1857
0832 1421251953 1002.8997
0833 1421255859 1006.8806
0834 1421259765 1005.2462
0835 1421263671 1005.5435
0836 1421267578 1003.1540
0837 1421271484 1000.8218
0838 1421275390 1002.8668
0839 1421279296 1003.5103
0840 1421283203 997.7018
0841 1421287109 1000.5720
0842 1421291015 1001.3876
0843 1421294921 995.7451
0844 1421298828 995.4677
0845 1421302734 995.1321
0846 1421306640 995.9270
0847 1421310546 994.1096
0848 1421314453 995.4481
0849 1421318359 991.0141
0850 1421322265 992.7576
0851 1421326171 994.1248
0852 1421330078 989.6735
0853 1421333984 987.5943
0854 1421337890 988.2486
0855 1421341796 988.3394
0856 1421345703 983.2662
0857 1421349609 988.4962
0858 1421353515 981.2249
0859 1421357421 984.9562
0860 1421361328 984.6818
0861 1421365234 980.3591
0862 1421369140 984.2703
0863 1421373046 984.3760
0864 1421376953 983.2514
0865 1421380859 981.1358
0866 1421384765 980.6490
0867 1421388671 977.9828
0868 1421392578 975.4199
0869 1421396484 976.2966
0870 1421400390 974.0701
0871 1421404296 980.1183
0872 1421408203 977.5909
0873 1421412109 976.8206
0874 1421416015 973.1628
0875 1421419921 974.3051
0876 1421423828 972.9641
0877 1421427734 974.8102
0878 1421431640 971.9568
0879 1421435546 972.6608
0880 1421439453 972.2840
0881 1421443359 976.3280
0882 1421447265 974.6044
0883 1421451171 969.7936
0884 1421455078 974.6617
0885 1421458984 973.8228
0886 1421462890 973.4735
0887 1421466796 977.4875
0888 1421470703 977.8486
0889 1421474609 976.3462
0890 1421478515 976.0154
0891 1421482421 975.2384
0892 1421486328 979.8881
0893 1421490234 977.2850
0894 1421494140 975.3575
0895 1421498046 980.6079
0896 1421501953 980.4656
0897 1421505859 984.9355
0898 1421509765 981.0767
0899 1421513671 977.5845
0900 1421517578 983.4796
0901 1421521484 983.5561
0902 1421525390 985.1580
0903 1421529296 982.9292
0904 1421533203 990.3536
0905 1421537109 989.8553
0906 1421541015 987.2982
0907 1421544921 994.3203
0908 1421548828 994.9167
0909 1421552734 994.9397
0910 1421556640 993.2564
0911 1421560546 998.1791
0912 1421564453 998.7282
0913 1421568359 1000.8424
0914 1421572265 1003.9124
0915 1421576171 1002.2743
0916 1421580078 1002.3156
0917 1421583984 1002.5612
0918 1421587890 1007.3297
0919 1421591796 1005.7023
0920 1421595703 1007.5860
0921 1421599609 1007.9822
0922 1421603515 1008.6035
0923 1421607421 1010.2883
0924 1421611328 1005.6611
0925 1421615234 1008.5448
0926 1421619140 1008.9405
0927 1421623046 1014.6627
0928 1421626953 1019.2616
0929 1421630859 1017.1792
0930 1421634765 1018.7629
0931 1421638671 1022.8907
0932 1421642578 1021.1824
0933 1421646484 1020.8229
0934 1421650390 1024.7832
0935 1421654296 1024.3799
0936 1421658203 1023.4691
0937 1421662109 1025.7854
0938 1421666015 1028.3738
0939 1421669921 1032.2870
0940 1421673828 1024.9390
0941 1421677734 1027.4163
0942 1421681640 1026.1254
0943 1421685546 1031.8031
0944 1421689453 1028.2787
0945 1421693359 1031.2102
0946 1421697265 1029.5746
0947 1421701171 1032.5164
0948 1421705078 1035.8773
0949 1421708984 1036.6375
0950 1421712890 1030.5941
0951 1421716796 1030.8668
0952 1421720703 1034.8269
0953 1421724609 1035.4308
0954 1421728515 1035.3568
0955 1421732421 1034.3580
0956 1421736328 1032.7212
0957 1421740234 1031.7933
0958 1421744140 1037.8535
0959 1421748046 1035.2380
0960 1421751953 1033.1981
0961 1421755859 1032.3851
0962 1421759765 1029.0475
0963 1421763671 1029.3154
0964 1421767578 1030.0186
0965 1421771484 1029.2772
0966 1421775390 1034.6439
0967 1421779296 1031.3458
0968 1421783203 1028.8284
0969 1421787109 1028.6053
0970 1421791015 1026.1246
0971 1421794921 1025.3427
0972 1421798828 1023.8703
0973 1421802734 1025.8834
0974 1421806640 1022.8104
0975 1421810546 1021.3748
0976 1421814453 1019.2930
0977 1421818359 1017.5613
0978 1421822265 1019.2053
0979 1421826171 1017.7716
0980 1421830078 1013.7063
0981 1421833984 1011.7420
0982 1421837890 1010.6066
0983 1421841796 1008.7824
0984 1421845703 1008.8790
0985 1421849609 1010.3364
0986 1421853515 1006.9693
0987 1421857421 1005.9449
0988 1421861328 1010.2996
0989 1421865234 1002.8627
0990 1421869140 1001.3743
0991 1421873046 1000.6759
0992 1421876953 1003.7512
0993 1421880859 999.6213
0994 1421884765 998.8969
0995 1421888671 998.0302
0996 1421892578 998.1921
0997 1421896484 990.3434
0998 1421900390 993.5627
0999 1421904296 993.0466
1000 1421908203 993.6680
1001 1421912109 988.0406
1002 1421916015 986.9050
1003 1421919921 986.9109
1004 1421923828 987.9863
1005 1421927734 987.8983
1006 1421931640 986.9944
1007 1421935546 983.7693
1008 1421939453 981.0294
1009 1421943359 987.4654
1010 1421947265 987.1707
1011 1421951171 984.3392
1012 1421955078 980.6507
1013 1421958984 984.5330
1014 1421962890 980.1247
1015 1421966796 980.3947
1016 1421970703 981.0140
1017 1421974609 981.2459
1018 1421978515 980.2617
1019 1421982421 977.4474
1020 1421986328 977.0893
1021 1421990234 981.9197
1022 1421994140 987.6147
1023 1421998046 1015.5745
1024 1422001953 1095.9012
1025 1422005859 1016.3666
1026 1422009765 984.7775
1027 1422013671 979.0419
1028 1422017578 980.9025
1029 1422021484 979.3779
1030 1422025390 977.4383
1031 1422029296 978.9661
1032 1422033203 977.6716
1033 1422037109 976.4182
1034 1422041015 975.7410
1035 1422044921 977.2821
1036 1422048828 977.3090
1037 1422052734 978.0164
1038 1422056640 978.4523
1039 1422060546 979.6198
1040 1422064453 982.6636
1041 1422068359 984.0109
1042 1422072265 983.1749
1043 1422076171 981.4155
1044 1422080078 984.1146
1045 1422083984 985.2548
1046 1422087890 980.8970
1047 1422091796 982.8542
1048 1422095703 986.7032
1049 1422099609 991.6913
1050 1422103515 987.1397
1051 1422107421 989.3726
1052 1422111328 989.8433
1053 1422115234 992.2758
1054 1422119140 994.9553
1055 1422123046 993.6425
1056 1422126953 997.2576
1057 1422130859 997.9813
1058 1422134765 999.8055
1059 1422138671 997.7307
1060 1422142578 996.4993
1061 1422146484 998.8890
1062 1422150390 1004.2260
1063 1422154296 1006.4341
1064 1422158203 1005.5559
1065 1422162109 1010.8106
1066 1422166015 1008.6741
1067 1422169921 1005.2422
1068 1422173828 1009.8696
1069 1422177734 1011.4736
1070 1422181640 1007.9423
1071 1422185546 1011.9332
1072 1422189453 1012.8786
1073 1422193359 1013.9077
1074 1422197265 1013.4620
1075 1422201171 1015.1125
1076 1422205078 1017.5856
1077 1422208984 1017.9496
1078 1422212890 1015.3331
1079 1422216796 1016.3124
1080 1422220703 1020.0479
1081 1422224609 1023.2709
1082 1422228515 1021.4297
1083 1422232421 1020.8829
1084 1422236328 1019.9813
1085 1422240234 1023.5685
1086 1422244140 1022.1866
1087 1422248046 1024.3645
1088 1422251953 1021.2092
1089 1422255859 1022.0878
1090 1422259765 1022.5067
1091 1422263671 1018.2567
1092 1422267578 1026.2189
1093 1422271484 1024.8043
1094 1422275390 1026.8948
1095 1422279296 1026.6132
1096 1422283203 1020.0992
1097 1422287109 1022.0790
1098 1422291015 1019.9130
1099 1422294921 1020.7210
1100 1422298828 1019.8965
1101 1422302734 1020.1763
1102 1422306640 1023.1793
1103 1422310546 1016.9971
1104 1422314453 1017.5786
1105 1422318359 1018.5492
1106 1422322265 1019.5013
1107 1422326171 1017.0013
1108 1422330078 1013.3454
1109 1422333984 1009.8435
1110 1422337890 1011.7972
1111 1422341796 1012.8016
1112 1422345703 1013.7401
1113 1422349609 1012.7731
1114 1422353515 1010.0193
1115 1422357421 1008.3348
1116 1422361328 1008.1922
1117 1422365234 1007.0361
1118 1422369140 1006.1911
1119 1422373046 1002.3984
1120 1422376953 1000.3773
1121 1422380859 1004.3458
1122 1422384765 1000.2327
1123 1422388671 1000.7197
1124 1422392578 996.5685
1125 1422396484 999.4720
1126 1422400390 997.5267
1127 1422404296 994.9719
1128 1422408203 991.4965
1129 1422412109 993.6569
1130 1422416015 993.1673
1131 1422419921 992.2513
1132 1422423828 990.0169
1133 1422427734 989.7372
1134 1422431640 982.4455
1135 1422435546 984.7189
1136 1422439453 985.2089
1137 1422443359 980.7399
1138 1422447265 982.7732
1139 1422451171 982.1227
1140 1422455078 978.5177
1141 1422458984 976.8394
1142 1422462890 976.1820
1143 1422466796 974.2850
1144 1422470703 975.2545
1145 1422474609 975.9781
1146 1422478515 968.7116
1147 1422482421 972.4846
1148 1422486328 968.8151
1149 1422490234 966.3466
1150 1422494140 971.1340
1151 1422498046 966.5732
1152 1422501953 968.9379
1153 1422505859 969.8137
1154 1422509765 964.9093
1155 1422513671 967.2020
1156 1422517578 963.9167
1157 1422521484 968.0681
1158 1422525390 969.9200
1159 1422529296 964.5858
1160 1422533203 962.6378
1161 1422537109 960.4001
1162 1422541015 959.9845
1163 1422544921 962.1476
1164 1422548828 956.9431
1165 1422552734 957.2366
1166 1422556640 960.9017
1167 1422560546 955.6929
1168 1422564453 956.2851
1169 1422568359 958.2598
1170 1422572265 958.9688
1171 1422576171 958.8654
1172 1422580078 958.6078
1173 1422583984 962.7167
1174 1422587890 957.7167
1175 1422591796 958.7937
1176 1422595703 960.5756
1177 1422599609 961.3874
1178 1422603515 959.8961
1179 1422607421 957.5414
1180 1422611328 958.5247
1181 1422615234 965.3433
1182 1422619140 960.6198
1183 1422623046 963.1508
1184 1422626953 962.9510
1185 1422630859 965.4423
1186 1422634765 969.4847
1187 1422638671 971.0590
1188 1422642578 969.3212
1189 1422646484 969.2886
1190 1422650390 967.1486
1191 1422654296 967.9781
1192 1422658203 969.4588
1193 1422662109 969.7694
1194 1422666015 975.9964
1195 1422669921 970.0200
1196 1422673828 970.8562
1197 1422677734 976.5891
1198 1422681640 976.5843
1199 1422685546 974.8236
1200 1422689453 976.8118
1201 1422693359 977.6545
1202 1422697265 984.0671
1203 1422701171 979.9725
1204 1422705078 984.2029
1205 1422708984 985.7581
1206 1422712890 981.3140
1207 1422716796 980.5609
1208 1422720703 982.9567
1209 1422724609 985.3425
1210 1422728515 984.6607
1211 1422732421 986.7639
1212 1422736328 987.2868
1213 1422740234 987.0466
1214 1422744140 986.5756
1215 1422748046 991.2606
1216 1422751953 991.0488
1217 1422755859 989.2097
1218 1422759765 987.6436
1219 1422763671 988.7415
1220 1422767578 993.8949
1221 1422771484 996.3813
1222 1422775390 994.5981
1223 1422779296 996.8174
1224 1422783203 995.2234
1225 1422787109 991.0562
1226 1422791015 992.5863
1227 1422794921 997.7972
1228 1422798828 997.3602
1229 1422802734 996.6900
1230 1422806640 998.8760
1231 1422810546 1003.2509
1232 1422814453 993.7321
1233 1422818359 993.8589
1234 1422822265 995.1903
1235 1422826171 991.5810
1236 1422830078 995.5631
1237 1422833984 996.2222
1238 1422837890 1001.5046
1239 1422841796 999.5513
1240 1422845703 997.1554
1241 1422849609 996.3104
1242 1422853515 996.2410
1243 1422857421 994.5351
1244 1422861328 992.7800
1245 1422865234 993.8734
1246 1422869140 990.4823
1247 1422873046 992.2186
1248 1422876953 990.5217
1249 1422880859 992.8627
1250 1422884765 991.8793
1251 1422888671 988.1003
1252 1422892578 986.9824
1253 1422896484 987.2575
1254 1422900390 987.8838
1255 1422904296 986.3594
1256 1422908203 983.6552
1257 1422912109 980.4186
1258 1422916015 986.4816
1259 1422919921 979.8154
1260 1422923828 983.2263
1261 1422927734 984.1057
1262 1422931640 980.4231
1263 1422935546 979.3218
1264 1422939453 975.3971
1265 1422943359 976.9375
1266 1422947265 973.1627
1267 1422951171 974.2264
1268 1422955078 971.6846
1269 1422958984 977.4134
1270 1422962890 977.0979
1271 1422966796 971.3667
1272 1422970703 965.7365
1273 1422974609 968.2667
1274 1422978515 966.8095
1275 1422982421 970.1017
1276 1422986328 966.1690
1277 1422990234 966.3708
1278 1422994140 965.2031
1279 1422998046 965.7025
1280 1423001953 960.1313
1281 1423005859 963.4069
1282 1423009765 960.5950
1283 1423013671 960.9748
1284 1423017578 961.0601
1285 1423021484 958.2244
1286 1423025390 956.0250
1287 1423029296 955.0587
1288 1423033203 959.1984
1289 1423037109 951.5762
1290 1423041015 951.2072
1291 1423044921 950.4190
1292 1423048828 953.0692
1293 1423052734 950.1089
1294 1423056640 947.7057
1295 1423060546 950.1677
1296 1423064453 952.0728
1297 1423068359 950.1292
1298 1423072265 946.7789
1299 1423076171 947.2223
1300 1423080078 945.8242
1301 1423083984 946.5289
1302 1423087890 946.1146
1303 1423091796 943.6646
1304 1423095703 945.8964
1305 1423099609 948.2013
1306 1423103515 947.9902
1307 1423107421 944.3639
1308 1423111328 944.7473
1309 1423115234 944.9144
1310 1423119140 944.6378
1311 1423123046 947.5394
1312 1423126953 947.2726
1313 1423130859 948.1053
1314 1423134765 940.0801
1315 1423138671 947.4660
1316 1423142578 949.3348
1317 1423146484 944.9885
1318 1423150390 945.7385
1319 1423154296 945.2745
1320 1423158203 946.9385
1321 1423162109 945.4990
1322 1423166015 942.8042
1323 1423169921 944.8252
1324 1423173828 948.2204
1325 1423177734 948.5388
1326 1423181640 943.9820
1327 1423185546 943.3037
1328 1423189453 950.3948
1329 1423193359 945.7865
1330 1423197265 947.0252
1331 1423201171 944.7740
1332 1423205078 947.2449
1333 1423208984 948.2781
1334 1423212890 945.8184
1335 1423216796 948.7892
1336 1423220703 952.6932
1337 1423224609 949.4203
1338 1423228515 952.8110
1339 1423232421 952.0569
1340 1423236328 944.2165
1341 1423240234 951.7139
1342 1423244140 953.6755
1343 1423248046 953.1051
1344 1423251953 953.3997
1345 1423255859 954.0292
1346 1423259765 955.2097
1347 1423263671 954.4270
1348 1423267578 954.0064
1349 1423271484 954.3904
1350 1423275390 954.8050
1351 1423279296 953.1095
1352 1423283203 955.8071
1353 1423287109 955.6508
1354 1423291015 957.0778
1355 1423294921 956.4451
1356 1423298828 958.6420
1357 1423302734 957.7534
1358 1423306640 959.3873
1359 1423310546 956.3607
1360 1423314453 956.3206
1361 1423318359 955.7443
1362 1423322265 957.7264
1363 1423326171 964.6670
1364 1423330078 959.8845
1365 1423333984 963.9351
1366 1423337890 959.1166
1367 1423341796 961.2719
1368 1423345703 964.0969
1369 1423349609 960.9312
1370 1423353515 958.6401
1371 1423357421 963.0446
1372 1423361328 959.7391
1373 1423365234 959.9177
1374 1423369140 963.3126
1375 1423373046 964.2967
1376 1423376953 963.0554
1377 1423380859 963.2095
1378 1423384765 961.7670
1379 1423388671 961.2205
1380 1423392578 960.5394
1381 1423396484 961.4582
1382 1423400390 963.9614
1383 1423404296 962.4421
1384 1423408203 961.8369
1385 1423412109 960.2825
1386 1423416015 958.0724
1387 1423419921 960.5954
1388 1423423828 961.1908
1389 1423427734 957.2400
1390 1423431640 959.4325
1391 1423435546 959.0903
1392 1423439453 962.7610
1393 1423443359 959.3502
1394 1423447265 956.3732
1395 1423451171 957.6279
1396 1423455078 960.1641
1397 1423458984 955.2222
1398 1423462890 959.5897
1399 1423466796 962.4901
1400 1423470703 960.5419
1401 1423474609 959.0522
1402 1423478515 960.0023
1403 1423482421 957.5044
1404 1423486328 956.6526
1405 1423490234 958.2721
1406 1423494140 959.0880
1407 1423498046 960.6282
1408 1423501953 961.3862
1409 1423505859 956.4284
1410 1423509765 957.8560
1411 1423513671 955.3336
1412 1423517578 955.6523
1413 1423521484 953.2999
1414 1423525390 956.3989
1415 1423529296 957.5300
1416 1423533203 957.0716
1417 1423537109 954.2678
1418 1423541015 955.9210
1419 1423544921 956.6886
1420 1423548828 958.0608
1421 1423552734 958.7990
1422 1423556640 959.2751
1423 1423560546 957.9669
1424 1423564453 957.6235
1425 1423568359 955.9607
1426 1423572265 958.6418
1427 1423576171 954.3021
1428 1423580078 956.5262
1429 1423583984 957.2983
1430 1423587890 957.6878
1431 1423591796 958.1614
1432 1423595703 959.1081
1433 1423599609 957.9415
1434 1423603515 959.5633
1435 1423607421 960.4824
1436 1423611328 964.1846
1437 1423615234 964.3295
1438 1423619140 969.7611
1439 1423623046 963.4702
1440 1423626953 963.7841
1441 1423630859 961.4147
1442 1423634765 961.2847
1443 1423638671 959.2404
1444 1423642578 959.4431
1445 1423646484 965.5034
1446 1423650390 964.5156
1447 1423654296 965.1186
1448 1423658203 966.2623
1449 1423662109 968.5035
1450 1423666015 966.4099
1451 1423669921 966.9204
1452 1423673828 965.1653
1453 1423677734 963.8212
1454 1423681640 964.7812
1455 1423685546 967.8284
1456 1423689453 971.0397
1457 1423693359 972.5112
1458 1423697265 973.1687
1459 1423701171 968.3765
1460 1423705078 972.2693
1461 1423708984 971.1343
1462 1423712890 973.2168
1463 1423716796 970.6957
1464 1423720703 973.2051
1465 1423724609 977.6513
1466 1423728515 977.9607
1467 1423732421 975.4871
1468 1423736328 973.2617
1469 1423740234 977.9132
1470 1423744140 975.7740
1471 1423748046 974.9678
1472 1423751953 981.1661
1473 1423755859 975.6019
1474 1423759765 983.1243
1475 1423763671 981.9498
1476 1423767578 981.2751
1477 1423771484 979.1535
1478 1423775390 987.1168
1479 1423779296 984.6220
1480 1423783203 982.4052
1481 1423787109 982.4556
1482 1423791015 984.5855
1483 1423794921 985.0866
1484 1423798828 982.8785
1485 1423802734 983.5518
1486 1423806640 983.5644
1487 1423810546 985.6653
1488 1423814453 981.3000
1489 1423818359 985.0150
1490 1423822265 985.8356
1491 1423826171 988.6967
1492 1423830078 987.1155
1493 1423833984 984.3481
1494 1423837890 985.1780
1495 1423841796 984.5629
1496 1423845703 985.1302
1497 1423849609 984.6664
1498 1423853515 984.2830
1499 1423857421 986.3121
1500 1423861328 983.2322
1501 1423865234 988.3184
1502 1423869140 984.1732
1503 1423873046 985.0594
1504 1423876953 985.7638
1505 1423880859 986.9337
1506 1423884765 983.8234
1507 1423888671 987.6696
1508 1423892578 981.5640
1509 1423896484 987.1052
1510 1423900390 987.2538
1511 1423904296 987.8204
1512 1423908203 985.7438
1513 1423912109 986.8538
1514 1423916015 986.2211
1515 1423919921 986.8949
1516 1423923828 984.6007
1517 1423927734 984.9255
1518 1423931640 981.8596
1519 1423935546 981.7449
1520 1423939453 986.4439
1521 1423943359 984.4143
1522 1423947265 984.0997
1523 1423951171 981.5576
1524 1423955078 985.0546
1525 1423958984 977.6008
1526 1423962890 983.2251
1527 1423966796 982.8659
1528 1423970703 985.4970
1529 1423974609 981.7453
1530 1423978515 978.2351
1531 1423982421 979.5978
1532 1423986328 982.3200
1533 1423990234 979.3426
1534 1423994140 981.2598
1535 1423998046 982.3063
1536 1424001953 991.5851
1537 1424005859 984.3292
1538 1424009765 982.1680
1539 1424013671 983.6161
1540 1424017578 982.3536
1541 1424021484 980.7291
1542 1424025390 982.6393
1543 1424029296 980.4494
1544 1424033203 984.7101
1545 1424037109 981.3854
1546 1424041015 981.7665
1547 1424044921 981.4366
1548 1424048828 979.9312
1549 1424052734 979.9296
1550 1424056640 980.2801
1551 1424060546 980.2252
1552 1424064453 985.5621
1553 1424068359 980.4075
1554 1424072265 983.5333
1555 1424076171 980.5907
1556 1424080078 985.3542
1557 1424083984 982.2560
1558 1424087890 988.0715
1559 1424091796 986.8218
1560 1424095703 988.9121
1561 1424099609 983.5313
1562 1424103515 984.6855
1563 1424107421 985.8824
1564 1424111328 986.9730
1565 1424115234 986.5963
1566 1424119140 987.5700
1567 1424123046 984.6138
1568 1424126953 984.2626
1569 1424130859 987.6617
1570 1424134765 988.3273
1571 1424138671 987.4908
1572 1424142578 992.9670
1573 1424146484 989.1487
1574 1424150390 991.2479
1575 1424154296 987.6479
1576 1424158203 995.0051
1577 1424162109 989.1070
1578 1424166015 995.7693
1579 1424169921 991.8513
1580 1424173828 994.8984
1581 1424177734 997.9141
1582 1424181640 996.9083
1583 1424185546 998.5378
1584 1424189453 998.6285
1585 1424193359 999.8334
1586 1424197265 998.3436
1587 1424201171 998.6603
1588 1424205078 1003.4493
1589 1424208984 1002.8677
1590 1424212890 1005.5552
1591 1424216796 1002.8193
1592 1424220703 1004.1395
1593 1424224609 1006.5391
1594 1424228515 1006.8844
1595 1424232421 1008.8882
1596 1424236328 1007.2647
1597 1424240234 1009.4977
1598 1424244140 1011.1588
1599 1424248046 1008.9441
1600 1424251953 1012.5350
1601 1424255859 1011.5499
1602 1424259765 1009.5460
1603 1424263671 1016.0050
1604 1424267578 1013.8868
1605 1424271484 1014.5481
1606 1424275390 1016.5815
1607 1424279296 1016.7226
1608 1424283203 1018.1118
1609 1424287109 1019.4630
1610 1424291015 1021.2215
1611 1424294921 1019.3983
1612 1424298828 1021.4195
1613 1424302734 1020.8408
1614 1424306640 1019.0314
1615 1424310546 1020.4379
1616 1424314453 1021.6471
1617 1424318359 1021.6298
1618 1424322265 1022.1399
1619 1424326171 1019.9182
1620 1424330078 1025.4524
1621 1424333984 1023.2313
1622 1424337890 1029.4873
1623 1424341796 1025.6249
1624 1424345703 1025.7561
1625 1424349609 1026.0070
1626 1424353515 1024.8219
1627 1424357421 1023.5350
1628 1424361328 1025.2770
1629 1424365234 1027.3278
1630 1424369140 1033.5127
1631 1424373046 1028.4646
1632 1424376953 1028.0848
1633 1424380859 1030.5535
1634 1424384765 1028.2916
1635 1424388671 1030.7910
1636 1424392578 1029.0424
1637 1424396484 1030.6547
1638 1424400390 1028.0100
1639 1424404296 1029.5115
1640 1424408203 1027.7759
1641 1424412109 1029.8273
1642 1424416015 1034.8358
1643 1424419921 1026.4286
1644 1424423828 1027.2701
1645 1424427734 1028.1829
1646 1424431640 1031.4946
1647 1424435546 1030.1405
1648 1424439453 1030.0649
1649 1424443359 1034.4213
1650 1424447265 1028.1447
1651 1424451171 1028.6597
1652 1424455078 1024.8295
1653 1424458984 1029.2825
1654 1424462890 1029.4098
1655 1424466796 1029.9879
1656 1424470703 1024.8479
1657 1424474609 1026.2638
1658 1424478515 1025.0210
1659 1424482421 1027.7570
1660 1424486328 1025.5580
1661 1424490234 1024.6790
1662 1424494140 1024.7471
1663 1424498046 1026.1786
1664 1424501953 1024.0270
1665 1424505859 1027.3497
1666 1424509765 1027.8368
1667 1424513671 1022.4285
1668 1424517578 1021.7619
1669 1424521484 1023.9059
1670 1424525390 1023.3504
1671 1424529296 1024.0302
1672 1424533203 1022.7831
1673 1424537109 1023.3177
1674 1424541015 1021.8621
1675 1424544921 1023.0750
1676 1424548828 1019.9789
1677 1424552734 1016.6896
1678 1424556640 1019.8051
1679 1424560546 1024.6118
1680 1424564453 1020.6613
1681 1424568359 1019.2488
1682 1424572265 1020.9855
1683 1424576171 1021.6540
1684 1424580078 1022.4617
1685 1424583984 1021.7325
1686 1424587890 1023.2141
1687 1424591796 1020.9778
1688 1424595703 1019.4452
1689 1424599609 1020.0455
1690 1424603515 1022.8535
1691 1424607421 1020.9453
1692 1424611328 1020.5633
1693 1424615234 1018.4301
1694 1424619140 1018.3788
1695 1424623046 1017.3340
1696 1424626953 1014.6819
1697 1424630859 1017.1668
1698 1424634765 1015.2954
1699 1424638671 1016.9128
1700 1424642578 1015.5818
1701 1424646484 1018.8077
1702 1424650390 1017.6334
1703 1424654296 1020.0812
1704 1424658203 1017.4368
1705 1424662109 1014.4423
1706 1424666015 1016.3560
1707 1424669921 1014.1427
1708 1424673828 1013.7219
1709 1424677734 1013.6232
1710 1424681640 1015.9951
1711 1424685546 1013.1898
1712 1424689453 1010.9976
1713 1424693359 1009.6995
1714 1424697265 1015.7725
1715 1424701171 1011.8182
1716 1424705078 1011.2515
1717 1424708984 1005.2343
1718 1424712890 1005.2665
1719 1424716796 1007.4949
1720 1424720703 1008.9117
1721 1424724609 1008.7781
1722 1424728515 1003.5908
1723 1424732421 1004.6253
1724 1424736328 1004.8812
1725 1424740234 998.8527
1726 1424744140 1002.3132
1727 1424748046 1005.9692
1728 1424751953 1000.3890
1729 1424755859 1001.4648
1730 1424759765 997.9358
1731 1424763671 1005.4806
1732 1424767578 990.1362
1733 1424771484 995.5008
1734 1424775390 997.3249
1735 1424779296 989.5986
1736 1424783203 995.1259
1737 1424787109 990.1039
1738 1424791015 991.6422
1739 1424794921 986.0570
1740 1424798828 986.6133
1741 1424802734 984.7816
1742 1424806640 982.2510
1743 1424810546 979.1202
1744 1424814453 980.4760
1745 1424818359 981.0088
1746 1424822265 979.0026
1747 1424826171 979.7738
1748 1424830078 974.6481
1749 1424833984 972.6138
1750 1424837890 973.2521
1751 1424841796 971.7926
1752 1424845703 972.5807
1753 1424849609 969.1661
1754 1424853515 970.9941
1755 1424857421 970.0729
1756 1424861328 962.5398
1757 1424865234 960.7305
1758 1424869140 962.2210
1759 1424873046 959.4456
1760 1424876953 954.9854
1761 1424880859 957.1272
1762 1424884765 954.6159
1763 1424888671 950.6411
1764 1424892578 951.8411
1765 1424896484 956.6348
1766 1424900390 947.3434
1767 1424904296 953.0472
1768 1424908203 951.3397
1769 1424912109 949.4449
1770 1424916015 946.7042
1771 1424919921 945.9378
1772 1424923828 944.2375
1773 1424927734 942.6590
1774 1424931640 945.1350
1775 1424935546 945.5592
1776 1424939453 939.0656
1777 1424943359 943.4130
1778 1424947265 943.7516
1779 1424951171 939.3278
1780 1424955078 939.3583
1781 1424958984 938.4695
1782 1424962890 939.4822
1783 1424966796 937.2609
1784 1424970703 940.7249
1785 1424974609 938.1730
1786 1424978515 939.7598
1787 1424982421 939.0132
1788 1424986328 939.0707
1789 1424990234 940.0053
1790 1424994140 939.6013
1791 1424998046 940.1543
1792 1425001953 951.7450
1793 1425005859 988.8490
1794 1425009765 989.8984
1795 1425013671 945.1140
1796 1425017578 945.9819
1797 1425021484 942.0158
1798 1425025390 948.6684
1799 1425029296 948.9899
1800 1425033203 952.2724
1801 1425037109 949.9327
1802 1425041015 950.3168
1803 1425044921 949.0024
1804 1425048828 952.0950
1805 1425052734 955.1967
1806 1425056640 958.6240
1807 1425060546 957.9142
1808 1425064453 959.8451
1809 1425068359 960.2820
1810 1425072265 965.5661
1811 1425076171 964.2549
1812 1425080078 973.4612
1813 1425083984 974.4438
1814 1425087890 974.6287
1815 1425091796 972.2282
1816 1425095703 980.8541
1817 1425099609 987.0632
1818 1425103515 987.5112
1819 1425107421 991.9150
1820 1425111328 992.1201
1821 1425115234 995.4051
1822 1425119140 1000.5395
1823 1425123046 999.7870
1824 1425126953 1002.5715
1825 1425130859 1007.9553
1826 1425134765 1006.4899
1827 1425138671 1015.8811
1828 1425142578 1018.4829
1829 1425146484 1019.0385
1830 1425150390 1021.2108
1831 1425154296 1023.9741
1832 1425158203 1026.8175
1833 1425162109 1033.8193
1834 1425166015 1033.7474
1835 1425169921 1040.4532
1836 1425173828 1044.1348
1837 1425177734 1040.3215
1838 1425181640 1046.6680
1839 1425185546 1046.1699
1840 1425189453 1052.2577
1841 1425193359 1053.3257
1842 1425197265 1055.1432
1843 1425201171 1056.7222
1844 1425205078 1059.5837
1845 1425208984 1059.3192
1846 1425212890 1063.2274
1847 1425216796 1064.4871
1848 1425220703 1065.7803
1849 1425224609 1066.8403
1850 1425228515 1070.6454
1851 1425232421 1071.8656
1852 1425236328 1064.8206
1853 1425240234 1064.1759
1854 1425244140 1064.7854
1855 1425248046 1065.6045
1856 1425251953 1066.9252
1857 1425255859 1058.5072
1858 1425259765 1059.1473
1859 1425263671 1059.5841
1860 1425267578 1057.1812
1861 1425271484 1059.7643
1862 1425275390 1056.0659
1863 1425279296 1053.8411
1864 1425283203 1049.8192
1865 1425287109 1048.4281
1866 1425291015 1040.4758
1867 1425294921 1040.5721
1868 1425298828 1038.3671
1869 1425302734 1026.8505
1870 1425306640 1020.5291
1871 1425310546 1017.1249
1872 1425314453 1013.4941
1873 1425318359 1008.0851
1874 1425322265 1001.4337
1875 1425326171 995.1001
1876 1425330078 983.7458
1877 1425333984 977.6837
1878 1425337890 968.1010
1879 1425341796 959.3893
1880 1425345703 950.7512
1881 1425349609 938.5513
1882 1425353515 927.3287
1883 1425357421 918.3734
1884 1425361328 912.0576
1885 1425365234 899.6198
1886 1425369140 889.4335
1887 1425373046 877.5687
1888 1425376953 869.3978
1889 1425380859 854.8619
1890 1425384765 842.0168
1891 1425388671 826.5958
1892 1425392578 815.2966
1893 1425396484 800.9746
1894 1425400390 786.7852
1895 1425404296 774.2093
1896 1425408203 763.0145
1897 1425412109 744.7068
1898 1425416015 729.0450
1899 1425419921 717.2770
1900 1425423828 699.7465
1901 1425427734 685.1965
1902 1425431640 673.3593
1903 1425435546 657.5463
1904 1425439453 639.2349
1905 1425443359 625.0952
1906 1425447265 607.8884
1907 1425451171 592.7894
1908 1425455078 578.8432
1909 1425458984 564.1305
1910 1425462890 547.7707
1911 1425466796 529.6351
1912 1425470703 514.5485
1913 1425474609 500.9323
1914 1425478515 487.0261
1915 1425482421 469.4480
1916 1425486328 454.2906
1917 1425490234 440.0046
1918 1425494140 422.4900
1919 1425498046 408.8272
1920 1425501953 393.5504
1921 1425505859 380.6960
1922 1425509765 363.8834
1923 1425513671 349.5484
1924 1425517578 336.0443
1925 1425521484 323.7950
1926 1425525390 310.2767
1927 1425529296 296.8550
1928 1425533203 283.4593
1929 1425537109 271.8962
1930 1425541015 259.1534
1931 1425544921 247.3549
1932 1425548828 235.5217
1933 1425552734 223.4153
1934 1425556640 213.9305
1935 1425560546 201.7407
1936 1425564453 190.8636
1937 1425568359 181.5562
1938 1425572265 171.7628
1939 1425576171 162.2328
1940 1425580078 153.1867
1941 1425583984 143.9388
1942 1425587890 134.7381
1943 1425591796 126.9674
1944 1425595703 119.4277
1945 1425599609 112.0671
1946 1425603515 104.8228
1947 1425607421 97.5273
1948 1425611328 91.5086
1949 1425615234 84.8909
1950 1425619140 78.8702
1951 1425623046 73.5454
1952 1425626953 68.1784
1953 1425630859 62.7961
1954 1425634765 58.2235
1955 1425638671 53.6742
1956 1425642578 49.3437
1957 1425646484 45.1815
1958 1425650390 41.6573
1959 1425654296 38.0967
1960 1425658203 34.7189
1961 1425662109 31.5919
1962 1425666015 28.7202
1963 1425669921 26.0759
1964 1425673828 23.4167
1965 1425677734 21.1076
1966 1425681640 18.9637
1967 1425685546 16.9918
1968 1425689453 15.1816
1969 1425693359 13.4960
1970 1425697265 11.9938
1971 1425701171 10.5618
1972 1425705078 9.2912
1973 1425708984 8.1590
1974 1425712890 7.1173
1975 1425716796 6.1700
1976 1425720703 5.3355
1977 1425724609 4.5807
1978 1425728515 3.8926
1979 1425732421 3.2974
1980 1425736328 2.7687
1981 1425740234 2.3085
1982 1425744140 1.8966
1983 1425748046 1.5426
1984 1425751953 1.2450
1985 1425755859 0.9849
1986 1425759765 0.7634
1987 1425763671 0.5840
1988 1425767578 0.4349
1989 1425771484 0.3146
1990 1425775390 0.2193
1991 1425779296 0.1465
1992 1425783203 0.0945
1993 1425787109 0.0597
1994 1425791015 0.0396
1995 1425794921 0.0325
1996 1425798828 0.0361
1997 1425802734 0.0494
1998 1425806640 0.0696
1999 1425810546 0.0962
2000 1425814453 0.1282
2001 1425818359 0.1625
2002 1425822265 0.2000
2003 1425826171 0.2403
2004 1425830078 0.2807
2005 1425833984 0.3228
2006 1425837890 0.3634
2007 1425841796 0.4029
2008 1425845703 0.4413
2009 1425849609 0.4795
2010 1425853515 0.5156
2011 1425857421 0.5512
2012 1425861328 0.5827
2013 1425865234 0.6115
2014 1425869140 0.6423
2015 1425873046 0.6687
2016 1425876953 0.6924
2017 1425880859 0.7128
2018 1425884765 0.7299
2019 1425888671 0.7506
2020 1425892578 0.7644
2021 1425896484 0.7810
2022 1425900390 0.7936
2023 1425904296 0.8030
2024 1425908203 0.8151
2025 1425912109 0.8190
2026 1425916015 0.8263
2027 1425919921 0.8314
2028 1425923828 0.8349
2029 1425927734 0.8386
2030 1425931640 0.8380
2031 1425935546 0.8415
2032 1425939453 0.8421
2033 1425943359 0.8439
2034 1425947265 0.8453
2035 1425951171 0.8438
2036 1425955078 0.8453
2037 1425958984 0.8460
2038 1425962890 0.8450
2039 1425966796 0.8429
2040 1425970703 0.8406
2041 1425974609 0.8386
2042 1425978515 0.8396
2043 1425982421 0.8379
2044 1425986328 0.8383
2045 1425990234 0.8390
2046 1425994140 0.8397
2047 1425998046 0.8394
