# File: 20-11-28T182358.hot
# NOTEA     = RSP1A+GPIOLabs Pi #1 On Horn
# NOTEB     = Sdrplay 8 MHz Test
# OBSERVER  = Science Aficionado
# DEVICE    = SDRPlay RSP1A
# DATADIR   = ../data/
# SITE      = RSP1A+GPIOLabs Pi #1 On Horn
# CITY      = Green Bank
# REGION    = West Virginia
# COUNTRY   = US
# TELTYPE   = Bubble Wrap  Horn
# FRAME     = TOPO
# GAIN1     = 0.0
# GAIN2     = 12.0
# GAIN3     = 12.0
# GAIN4     = 0.0
# Count     = 360000
# CenterFreq= 1422000000.0
# Bandwidth = 8000000.0
# Duration  = 157.290318
# DeltaX    = 5859.375
# TSYS      = 200.0
# TRX       = 100.0
# TRMS      = 2.0
# TINT      = 1.0
# KPERC     = 100.0
# GAINFACT  = 1.0
# BUNIT     = Counts
# NCHAN     = 2048
# NSPEC     = 1
# NTIME     = 0
# NSAMPLES  = 0
# EPEAK     = 4.10875183718
# ERMS      = 0.995973393526
# EMJD      = 58568.808999981004 
# REFCHAN   = 1024.0
# REFSAMPL  = 256.0
# NAVE      = 600
# NMEDIAN   = 1024
# Fft_rate  = 5000
# UTC       = 2020-11-28 18:23:58.269604
# SECONDS   =       0.0000000000 
# LST       = 17:37:02.600
# AZ        = 180.0
# EL        = -40.0
# TELLON    = -79:50:22.920
# TELLAT    = +38:25:59.160
# RA        = 06:08:00.030
# DEC       = -88:26:34.100
# GALLON    = 301:12:32.90
# GALLAT    = -27:24:40.00
# ALT_SUN   = +27:29:46.2
# AZ_SUN    = +200:04:36.4
# ETAA      = 0.8
# ETAB      = 0.99
# POLANGLE  = 0.0
# TELSIZEAM = 1.0
# TELSIZEBM = 1.0
# AST_VERS  = 05.01
0000 1418001953 0.8426
0001 1418005859 0.8469
0002 1418009765 0.8416
0003 1418013671 0.8495
0004 1418017578 0.8451
0005 1418021484 0.8483
0006 1418025390 0.8531
0007 1418029296 0.8534
0008 1418033203 0.8551
0009 1418037109 0.8608
0010 1418041015 0.8632
0011 1418044921 0.8670
0012 1418048828 0.8674
0013 1418052734 0.8644
0014 1418056640 0.8702
0015 1418060546 0.8723
0016 1418064453 0.8686
0017 1418068359 0.8708
0018 1418072265 0.8720
0019 1418076171 0.8687
0020 1418080078 0.8639
0021 1418083984 0.8642
0022 1418087890 0.8598
0023 1418091796 0.8551
0024 1418095703 0.8493
0025 1418099609 0.8432
0026 1418103515 0.8304
0027 1418107421 0.8159
0028 1418111328 0.8023
0029 1418115234 0.7856
0030 1418119140 0.7692
0031 1418123046 0.7476
0032 1418126953 0.7270
0033 1418130859 0.7024
0034 1418134765 0.6800
0035 1418138671 0.6475
0036 1418142578 0.6120
0037 1418146484 0.5800
0038 1418150390 0.5462
0039 1418154296 0.5050
0040 1418158203 0.4657
0041 1418162109 0.4246
0042 1418166015 0.3838
0043 1418169921 0.3383
0044 1418173828 0.2953
0045 1418177734 0.2544
0046 1418181640 0.2113
0047 1418185546 0.1712
0048 1418189453 0.1334
0049 1418193359 0.1004
0050 1418197265 0.0721
0051 1418201171 0.0504
0052 1418205078 0.0370
0053 1418208984 0.0329
0054 1418212890 0.0404
0055 1418216796 0.0615
0056 1418220703 0.0987
0057 1418224609 0.1541
0058 1418228515 0.2308
0059 1418232421 0.3324
0060 1418236328 0.4581
0061 1418240234 0.6178
0062 1418244140 0.8111
0063 1418248046 1.0404
0064 1418251953 1.3157
0065 1418255859 1.6420
0066 1418259765 2.0135
0067 1418263671 2.4393
0068 1418267578 2.9293
0069 1418271484 3.4888
0070 1418275390 4.1095
0071 1418279296 4.8456
0072 1418283203 5.6483
0073 1418287109 6.5089
0074 1418291015 7.5293
0075 1418294921 8.6530
0076 1418298828 9.9060
0077 1418302734 11.2373
0078 1418306640 12.6602
0079 1418310546 14.2832
0080 1418314453 16.1142
0081 1418318359 18.0304
0082 1418322265 20.1707
0083 1418326171 22.4714
0084 1418330078 24.7803
0085 1418333984 27.4915
0086 1418337890 30.3440
0087 1418341796 33.4102
0088 1418345703 36.5526
0089 1418349609 40.4019
0090 1418353515 44.0518
0091 1418357421 47.9588
0092 1418361328 52.1805
0093 1418365234 56.7127
0094 1418369140 61.7591
0095 1418373046 66.8229
0096 1418376953 72.3334
0097 1418380859 77.9006
0098 1418384765 84.0758
0099 1418388671 90.1538
0100 1418392578 96.7533
0101 1418396484 103.2130
0102 1418400390 111.3592
0103 1418404296 118.9318
0104 1418408203 126.6672
0105 1418412109 135.1968
0106 1418416015 143.9037
0107 1418419921 152.8085
0108 1418423828 162.0040
0109 1418427734 171.0777
0110 1418431640 181.5252
0111 1418435546 192.4402
0112 1418439453 203.8860
0113 1418443359 214.3447
0114 1418447265 225.7838
0115 1418451171 238.4714
0116 1418455078 249.6914
0117 1418458984 262.2204
0118 1418462890 275.2436
0119 1418466796 288.7991
0120 1418470703 300.9763
0121 1418474609 315.5406
0122 1418478515 329.4667
0123 1418482421 344.1112
0124 1418486328 358.2619
0125 1418490234 372.7386
0126 1418494140 389.7064
0127 1418498046 405.7775
0128 1418501953 418.7509
0129 1418505859 433.5630
0130 1418509765 450.2839
0131 1418513671 467.5730
0132 1418517578 481.7969
0133 1418521484 498.5786
0134 1418525390 514.4993
0135 1418529296 531.1049
0136 1418533203 547.6908
0137 1418537109 565.6522
0138 1418541015 580.8134
0139 1418544921 599.3706
0140 1418548828 614.2060
0141 1418552734 630.4598
0142 1418556640 649.7642
0143 1418560546 664.6893
0144 1418564453 682.2314
0145 1418568359 697.7556
0146 1418572265 714.1177
0147 1418576171 734.9795
0148 1418580078 747.7009
0149 1418583984 762.7845
0150 1418587890 775.8979
0151 1418591796 790.5782
0152 1418595703 809.5329
0153 1418599609 823.3253
0154 1418603515 838.5641
0155 1418607421 850.0714
0156 1418611328 862.1494
0157 1418615234 875.9575
0158 1418619140 895.9812
0159 1418623046 904.3122
0160 1418626953 922.6252
0161 1418630859 933.1774
0162 1418634765 940.2635
0163 1418638671 956.9965
0164 1418642578 971.6019
0165 1418646484 983.8062
0166 1418650390 987.0994
0167 1418654296 1001.1909
0168 1418658203 1008.0339
0169 1418662109 1015.0316
0170 1418666015 1025.4349
0171 1418669921 1040.0153
0172 1418673828 1049.8198
0173 1418677734 1055.4641
0174 1418681640 1063.0482
0175 1418685546 1073.1698
0176 1418689453 1075.2504
0177 1418693359 1083.8492
0178 1418697265 1088.5826
0179 1418701171 1097.6313
0180 1418705078 1102.4336
0181 1418708984 1106.7214
0182 1418712890 1110.0612
0183 1418716796 1116.0525
0184 1418720703 1108.9539
0185 1418724609 1119.0789
0186 1418728515 1122.9501
0187 1418732421 1121.5804
0188 1418736328 1128.4934
0189 1418740234 1131.6764
0190 1418744140 1132.4221
0191 1418748046 1132.7283
0192 1418751953 1131.2065
0193 1418755859 1132.0393
0194 1418759765 1131.7504
0195 1418763671 1132.6565
0196 1418767578 1135.5818
0197 1418771484 1132.9680
0198 1418775390 1129.3784
0199 1418779296 1131.0396
0200 1418783203 1126.5934
0201 1418787109 1133.1757
0202 1418791015 1131.9579
0203 1418794921 1129.6781
0204 1418798828 1123.7794
0205 1418802734 1117.4319
0206 1418806640 1123.5502
0207 1418810546 1119.8893
0208 1418814453 1117.3040
0209 1418818359 1113.9695
0210 1418822265 1112.0806
0211 1418826171 1105.9257
0212 1418830078 1107.7263
0213 1418833984 1103.5596
0214 1418837890 1105.6947
0215 1418841796 1100.6453
0216 1418845703 1096.3160
0217 1418849609 1089.5387
0218 1418853515 1091.7163
0219 1418857421 1087.3519
0220 1418861328 1081.1421
0221 1418865234 1079.4252
0222 1418869140 1077.5374
0223 1418873046 1069.8456
0224 1418876953 1066.7407
0225 1418880859 1066.7931
0226 1418884765 1062.3459
0227 1418888671 1057.9674
0228 1418892578 1054.5321
0229 1418896484 1047.2296
0230 1418900390 1047.3356
0231 1418904296 1046.3898
0232 1418908203 1043.9052
0233 1418912109 1040.8217
0234 1418916015 1039.3760
0235 1418919921 1036.6909
0236 1418923828 1036.4681
0237 1418927734 1031.8602
0238 1418931640 1027.6168
0239 1418935546 1019.9454
0240 1418939453 1023.1252
0241 1418943359 1022.4957
0242 1418947265 1021.2421
0243 1418951171 1017.2883
0244 1418955078 1013.9047
0245 1418958984 1009.8588
0246 1418962890 1008.9434
0247 1418966796 1007.8813
0248 1418970703 1010.5642
0249 1418974609 1005.9684
0250 1418978515 1005.6028
0251 1418982421 1003.7308
0252 1418986328 1000.4897
0253 1418990234 1000.3759
0254 1418994140 1000.1499
0255 1418998046 1001.2245
0256 1419001953 998.3147
0257 1419005859 995.9526
0258 1419009765 998.4553
0259 1419013671 993.2294
0260 1419017578 994.7640
0261 1419021484 995.0867
0262 1419025390 994.9229
0263 1419029296 997.6664
0264 1419033203 998.8156
0265 1419037109 998.9883
0266 1419041015 997.1981
0267 1419044921 993.3348
0268 1419048828 993.4705
0269 1419052734 995.2109
0270 1419056640 995.3669
0271 1419060546 994.8563
0272 1419064453 1000.0224
0273 1419068359 1003.0873
0274 1419072265 1001.4630
0275 1419076171 1001.5394
0276 1419080078 1004.1848
0277 1419083984 1003.5027
0278 1419087890 1002.9694
0279 1419091796 1003.4044
0280 1419095703 1004.9691
0281 1419099609 1010.4223
0282 1419103515 1012.0469
0283 1419107421 1008.9470
0284 1419111328 1011.2284
0285 1419115234 1010.9323
0286 1419119140 1017.0140
0287 1419123046 1014.8311
0288 1419126953 1013.9752
0289 1419130859 1017.4187
0290 1419134765 1015.3358
0291 1419138671 1018.5366
0292 1419142578 1020.2302
0293 1419146484 1020.2357
0294 1419150390 1023.4978
0295 1419154296 1024.0803
0296 1419158203 1028.2214
0297 1419162109 1027.4832
0298 1419166015 1025.5265
0299 1419169921 1032.0170
0300 1419173828 1030.2910
0301 1419177734 1034.0574
0302 1419181640 1037.0375
0303 1419185546 1032.9707
0304 1419189453 1038.4673
0305 1419193359 1037.2324
0306 1419197265 1038.2612
0307 1419201171 1044.7803
0308 1419205078 1040.9617
0309 1419208984 1042.6493
0310 1419212890 1046.8213
0311 1419216796 1047.5956
0312 1419220703 1045.9406
0313 1419224609 1048.8856
0314 1419228515 1051.5616
0315 1419232421 1046.8816
0316 1419236328 1050.1860
0317 1419240234 1056.4160
0318 1419244140 1052.9722
0319 1419248046 1051.2162
0320 1419251953 1057.7419
0321 1419255859 1055.8187
0322 1419259765 1057.2164
0323 1419263671 1058.2692
0324 1419267578 1059.2104
0325 1419271484 1062.0946
0326 1419275390 1065.6775
0327 1419279296 1062.9408
0328 1419283203 1065.8068
0329 1419287109 1065.3041
0330 1419291015 1063.9166
0331 1419294921 1063.1987
0332 1419298828 1065.0671
0333 1419302734 1067.2919
0334 1419306640 1064.7000
0335 1419310546 1066.1581
0336 1419314453 1064.9178
0337 1419318359 1068.1390
0338 1419322265 1073.2896
0339 1419326171 1070.9928
0340 1419330078 1065.3885
0341 1419333984 1070.4108
0342 1419337890 1071.8114
0343 1419341796 1071.7930
0344 1419345703 1069.0927
0345 1419349609 1072.9381
0346 1419353515 1072.6096
0347 1419357421 1070.3579
0348 1419361328 1074.6144
0349 1419365234 1073.8800
0350 1419369140 1071.6963
0351 1419373046 1072.0747
0352 1419376953 1072.7384
0353 1419380859 1070.9432
0354 1419384765 1077.5482
0355 1419388671 1074.2152
0356 1419392578 1073.9965
0357 1419396484 1072.7128
0358 1419400390 1073.0806
0359 1419404296 1075.5831
0360 1419408203 1071.6024
0361 1419412109 1074.8156
0362 1419416015 1071.4967
0363 1419419921 1074.5787
0364 1419423828 1075.1942
0365 1419427734 1078.7572
0366 1419431640 1073.6045
0367 1419435546 1077.6118
0368 1419439453 1079.3529
0369 1419443359 1079.1973
0370 1419447265 1074.4663
0371 1419451171 1076.4496
0372 1419455078 1071.6232
0373 1419458984 1074.2084
0374 1419462890 1075.2063
0375 1419466796 1076.0011
0376 1419470703 1075.3281
0377 1419474609 1077.5249
0378 1419478515 1079.2012
0379 1419482421 1078.4777
0380 1419486328 1078.6144
0381 1419490234 1076.4980
0382 1419494140 1076.0736
0383 1419498046 1077.6708
0384 1419501953 1078.5225
0385 1419505859 1077.9711
0386 1419509765 1074.1072
0387 1419513671 1073.1064
0388 1419517578 1073.3990
0389 1419521484 1078.0281
0390 1419525390 1079.5267
0391 1419529296 1079.8262
0392 1419533203 1073.0524
0393 1419537109 1078.1478
0394 1419541015 1078.1049
0395 1419544921 1080.8409
0396 1419548828 1075.9763
0397 1419552734 1076.4690
0398 1419556640 1078.0670
0399 1419560546 1082.7012
0400 1419564453 1083.6511
0401 1419568359 1075.5450
0402 1419572265 1075.0730
0403 1419576171 1078.7200
0404 1419580078 1079.7520
0405 1419583984 1073.0100
0406 1419587890 1076.8677
0407 1419591796 1080.5708
0408 1419595703 1077.7625
0409 1419599609 1076.5101
0410 1419603515 1078.9000
0411 1419607421 1075.8628
0412 1419611328 1077.9598
0413 1419615234 1076.4336
0414 1419619140 1074.6981
0415 1419623046 1076.6174
0416 1419626953 1076.5221
0417 1419630859 1078.1908
0418 1419634765 1077.1462
0419 1419638671 1074.8226
0420 1419642578 1075.4614
0421 1419646484 1072.1013
0422 1419650390 1075.0167
0423 1419654296 1074.5314
0424 1419658203 1075.3494
0425 1419662109 1075.4718
0426 1419666015 1078.1796
0427 1419669921 1071.2455
0428 1419673828 1069.9497
0429 1419677734 1069.4443
0430 1419681640 1068.4227
0431 1419685546 1068.8416
0432 1419689453 1070.6567
0433 1419693359 1068.7256
0434 1419697265 1067.2682
0435 1419701171 1071.9647
0436 1419705078 1071.1029
0437 1419708984 1065.4091
0438 1419712890 1065.1235
0439 1419716796 1071.7433
0440 1419720703 1065.1576
0441 1419724609 1061.0361
0442 1419728515 1062.7590
0443 1419732421 1062.4321
0444 1419736328 1061.6572
0445 1419740234 1062.0326
0446 1419744140 1053.7670
0447 1419748046 1055.4879
0448 1419751953 1058.8472
0449 1419755859 1053.3732
0450 1419759765 1051.0957
0451 1419763671 1056.2133
0452 1419767578 1053.0060
0453 1419771484 1049.1920
0454 1419775390 1048.2164
0455 1419779296 1053.4861
0456 1419783203 1050.6559
0457 1419787109 1047.0778
0458 1419791015 1050.4044
0459 1419794921 1048.2603
0460 1419798828 1045.1676
0461 1419802734 1041.2552
0462 1419806640 1043.3394
0463 1419810546 1042.3247
0464 1419814453 1043.4124
0465 1419818359 1039.5577
0466 1419822265 1042.3479
0467 1419826171 1041.4755
0468 1419830078 1035.2485
0469 1419833984 1035.1290
0470 1419837890 1035.8954
0471 1419841796 1033.5374
0472 1419845703 1034.1846
0473 1419849609 1035.0846
0474 1419853515 1031.5807
0475 1419857421 1033.6686
0476 1419861328 1031.2148
0477 1419865234 1033.6006
0478 1419869140 1029.4917
0479 1419873046 1027.2064
0480 1419876953 1027.0956
0481 1419880859 1026.7850
0482 1419884765 1029.0994
0483 1419888671 1023.3505
0484 1419892578 1024.1801
0485 1419896484 1024.3477
0486 1419900390 1026.5548
0487 1419904296 1022.0487
0488 1419908203 1021.1543
0489 1419912109 1024.3087
0490 1419916015 1021.6305
0491 1419919921 1019.5387
0492 1419923828 1020.0641
0493 1419927734 1017.7133
0494 1419931640 1018.8661
0495 1419935546 1018.8298
0496 1419939453 1019.5619
0497 1419943359 1020.3050
0498 1419947265 1014.3081
0499 1419951171 1020.5721
0500 1419955078 1017.3171
0501 1419958984 1018.2209
0502 1419962890 1015.9433
0503 1419966796 1017.1576
0504 1419970703 1016.2621
0505 1419974609 1021.5247
0506 1419978515 1015.5900
0507 1419982421 1020.4609
0508 1419986328 1018.9478
0509 1419990234 1019.6154
0510 1419994140 1020.6253
0511 1419998046 1017.0524
0512 1420001953 1012.1208
0513 1420005859 1014.5848
0514 1420009765 1013.3740
0515 1420013671 1021.5704
0516 1420017578 1018.8966
0517 1420021484 1016.0303
0518 1420025390 1016.2387
0519 1420029296 1017.1783
0520 1420033203 1020.7794
0521 1420037109 1018.9538
0522 1420041015 1014.7368
0523 1420044921 1019.2192
0524 1420048828 1016.8011
0525 1420052734 1018.4902
0526 1420056640 1020.7537
0527 1420060546 1022.8939
0528 1420064453 1019.2990
0529 1420068359 1020.5672
0530 1420072265 1019.9150
0531 1420076171 1020.4762
0532 1420080078 1016.7757
0533 1420083984 1018.3011
0534 1420087890 1020.0187
0535 1420091796 1017.6010
0536 1420095703 1020.4802
0537 1420099609 1015.9327
0538 1420103515 1022.9240
0539 1420107421 1021.9708
0540 1420111328 1022.2253
0541 1420115234 1021.8821
0542 1420119140 1016.6755
0543 1420123046 1017.4747
0544 1420126953 1018.4184
0545 1420130859 1018.2098
0546 1420134765 1020.7252
0547 1420138671 1023.3965
0548 1420142578 1022.6225
0549 1420146484 1020.4895
0550 1420150390 1016.5356
0551 1420154296 1014.0324
0552 1420158203 1019.1294
0553 1420162109 1019.3465
0554 1420166015 1021.4854
0555 1420169921 1021.3616
0556 1420173828 1020.0172
0557 1420177734 1019.7876
0558 1420181640 1018.6116
0559 1420185546 1016.0903
0560 1420189453 1015.8830
0561 1420193359 1017.6554
0562 1420197265 1016.1955
0563 1420201171 1019.8247
0564 1420205078 1022.0944
0565 1420208984 1016.3875
0566 1420212890 1015.9869
0567 1420216796 1012.8330
0568 1420220703 1013.0136
0569 1420224609 1012.7847
0570 1420228515 1013.8683
0571 1420232421 1015.4022
0572 1420236328 1013.0116
0573 1420240234 1011.5326
0574 1420244140 1010.6537
0575 1420248046 1013.9117
0576 1420251953 1008.4208
0577 1420255859 1006.9047
0578 1420259765 1009.3632
0579 1420263671 1011.0816
0580 1420267578 1012.7952
0581 1420271484 1010.5622
0582 1420275390 1010.8972
0583 1420279296 1008.9488
0584 1420283203 1005.9987
0585 1420287109 1008.1068
0586 1420291015 1006.2460
0587 1420294921 1006.5579
0588 1420298828 1008.1155
0589 1420302734 1002.4393
0590 1420306640 1002.0743
0591 1420310546 1006.2136
0592 1420314453 1002.2267
0593 1420318359 1004.7558
0594 1420322265 1006.4200
0595 1420326171 1001.1857
0596 1420330078 1004.2935
0597 1420333984 997.0099
0598 1420337890 1000.4917
0599 1420341796 999.8646
0600 1420345703 995.8882
0601 1420349609 998.0476
0602 1420353515 1001.0275
0603 1420357421 1004.6768
0604 1420361328 1000.7713
0605 1420365234 998.0621
0606 1420369140 993.9204
0607 1420373046 993.6789
0608 1420376953 996.3600
0609 1420380859 995.1725
0610 1420384765 992.3650
0611 1420388671 989.5659
0612 1420392578 992.2512
0613 1420396484 991.4496
0614 1420400390 993.0228
0615 1420404296 990.2432
0616 1420408203 993.3965
0617 1420412109 988.3989
0618 1420416015 989.2852
0619 1420419921 992.0976
0620 1420423828 987.8082
0621 1420427734 982.9310
0622 1420431640 984.6186
0623 1420435546 988.1451
0624 1420439453 984.9208
0625 1420443359 982.2505
0626 1420447265 986.9384
0627 1420451171 982.2918
0628 1420455078 982.8752
0629 1420458984 983.4562
0630 1420462890 981.6611
0631 1420466796 982.3254
0632 1420470703 980.7067
0633 1420474609 980.6639
0634 1420478515 983.9990
0635 1420482421 985.2471
0636 1420486328 986.7181
0637 1420490234 983.3215
0638 1420494140 985.5549
0639 1420498046 983.5586
0640 1420501953 983.7036
0641 1420505859 981.9235
0642 1420509765 983.2382
0643 1420513671 983.9668
0644 1420517578 983.5080
0645 1420521484 985.8786
0646 1420525390 984.7061
0647 1420529296 983.9897
0648 1420533203 981.9658
0649 1420537109 984.7505
0650 1420541015 986.4042
0651 1420544921 986.7144
0652 1420548828 987.4794
0653 1420552734 982.6443
0654 1420556640 980.3720
0655 1420560546 981.0763
0656 1420564453 984.5030
0657 1420568359 984.5887
0658 1420572265 986.3149
0659 1420576171 980.6642
0660 1420580078 980.7106
0661 1420583984 984.0788
0662 1420587890 987.8625
0663 1420591796 988.2096
0664 1420595703 982.2361
0665 1420599609 982.0496
0666 1420603515 984.0394
0667 1420607421 988.1155
0668 1420611328 982.1747
0669 1420615234 979.6467
0670 1420619140 984.2217
0671 1420623046 979.4003
0672 1420626953 981.6149
0673 1420630859 981.8140
0674 1420634765 985.7260
0675 1420638671 982.7538
0676 1420642578 983.2155
0677 1420646484 983.2206
0678 1420650390 984.1216
0679 1420654296 985.7093
0680 1420658203 981.1204
0681 1420662109 980.6913
0682 1420666015 984.4052
0683 1420669921 979.7229
0684 1420673828 980.2930
0685 1420677734 984.4048
0686 1420681640 982.4042
0687 1420685546 978.8854
0688 1420689453 975.0684
0689 1420693359 979.3713
0690 1420697265 977.9774
0691 1420701171 977.9827
0692 1420705078 985.0134
0693 1420708984 980.2469
0694 1420712890 981.0513
0695 1420716796 978.2154
0696 1420720703 977.7319
0697 1420724609 975.2211
0698 1420728515 977.8074
0699 1420732421 976.1629
0700 1420736328 976.2136
0701 1420740234 974.5964
0702 1420744140 974.9446
0703 1420748046 973.3550
0704 1420751953 973.8926
0705 1420755859 973.1983
0706 1420759765 971.3023
0707 1420763671 970.3621
0708 1420767578 973.5654
0709 1420771484 970.3407
0710 1420775390 968.2908
0711 1420779296 972.6331
0712 1420783203 969.1004
0713 1420787109 972.0891
0714 1420791015 971.2221
0715 1420794921 967.7954
0716 1420798828 969.5840
0717 1420802734 966.5868
0718 1420806640 967.5355
0719 1420810546 966.0908
0720 1420814453 968.7548
0721 1420818359 961.8876
0722 1420822265 966.0889
0723 1420826171 966.4243
0724 1420830078 963.9493
0725 1420833984 965.5291
0726 1420837890 962.2987
0727 1420841796 960.9460
0728 1420845703 963.9266
0729 1420849609 961.8102
0730 1420853515 963.6469
0731 1420857421 962.1700
0732 1420861328 963.2606
0733 1420865234 962.2820
0734 1420869140 961.1545
0735 1420873046 964.2956
0736 1420876953 963.4174
0737 1420880859 963.7601
0738 1420884765 964.2723
0739 1420888671 966.7368
0740 1420892578 965.1606
0741 1420896484 964.6429
0742 1420900390 964.6193
0743 1420904296 965.0056
0744 1420908203 966.9549
0745 1420912109 968.2357
0746 1420916015 966.9731
0747 1420919921 963.5281
0748 1420923828 965.3550
0749 1420927734 964.5096
0750 1420931640 964.4532
0751 1420935546 969.3277
0752 1420939453 969.8994
0753 1420943359 965.7427
0754 1420947265 964.2312
0755 1420951171 969.0660
0756 1420955078 967.0855
0757 1420958984 968.5654
0758 1420962890 970.1198
0759 1420966796 974.2900
0760 1420970703 975.8257
0761 1420974609 968.5808
0762 1420978515 975.0163
0763 1420982421 971.0247
0764 1420986328 973.8638
0765 1420990234 979.5891
0766 1420994140 980.5503
0767 1420998046 978.4621
0768 1421001953 983.1733
0769 1421005859 980.3365
0770 1421009765 983.8472
0771 1421013671 981.5015
0772 1421017578 983.2690
0773 1421021484 984.8784
0774 1421025390 988.0598
0775 1421029296 983.1611
0776 1421033203 988.0420
0777 1421037109 991.9183
0778 1421041015 990.2396
0779 1421044921 988.2195
0780 1421048828 989.5219
0781 1421052734 993.2170
0782 1421056640 989.9246
0783 1421060546 995.2824
0784 1421064453 994.0549
0785 1421068359 998.7044
0786 1421072265 993.2518
0787 1421076171 995.6065
0788 1421080078 1001.3242
0789 1421083984 1000.3549
0790 1421087890 1001.2493
0791 1421091796 1003.3625
0792 1421095703 1002.5322
0793 1421099609 1004.6645
0794 1421103515 1003.2848
0795 1421107421 1003.2485
0796 1421111328 1002.9290
0797 1421115234 1006.6401
0798 1421119140 1008.8389
0799 1421123046 1011.2079
0800 1421126953 1010.9956
0801 1421130859 1009.5067
0802 1421134765 1010.8086
0803 1421138671 1014.1547
0804 1421142578 1014.7536
0805 1421146484 1010.6523
0806 1421150390 1011.2159
0807 1421154296 1010.6438
0808 1421158203 1009.4337
0809 1421162109 1011.0810
0810 1421166015 1009.2036
0811 1421169921 1016.1890
0812 1421173828 1011.9363
0813 1421177734 1011.1498
0814 1421181640 1009.7486
0815 1421185546 1016.3981
0816 1421189453 1008.3824
0817 1421193359 1010.9960
0818 1421197265 1013.8557
0819 1421201171 1014.7533
0820 1421205078 1013.4012
0821 1421208984 1012.3134
0822 1421212890 1009.6980
0823 1421216796 1013.7762
0824 1421220703 1011.8323
0825 1421224609 1014.3661
0826 1421228515 1014.2377
0827 1421232421 1012.3461
0828 1421236328 1013.5264
0829 1421240234 1010.2985
0830 1421244140 1010.7519
0831 1421248046 1006.4910
0832 1421251953 1005.9042
0833 1421255859 1006.8846
0834 1421259765 1006.0256
0835 1421263671 1004.8839
0836 1421267578 1004.9752
0837 1421271484 1002.1288
0838 1421275390 998.5642
0839 1421279296 1002.5551
0840 1421283203 998.1324
0841 1421287109 998.4531
0842 1421291015 996.8582
0843 1421294921 998.4330
0844 1421298828 996.7652
0845 1421302734 994.2646
0846 1421306640 997.2211
0847 1421310546 994.9834
0848 1421314453 991.3459
0849 1421318359 994.1508
0850 1421322265 994.1431
0851 1421326171 992.0275
0852 1421330078 992.4092
0853 1421333984 992.9695
0854 1421337890 987.7576
0855 1421341796 987.4881
0856 1421345703 986.4349
0857 1421349609 985.8432
0858 1421353515 983.1573
0859 1421357421 984.3616
0860 1421361328 983.4521
0861 1421365234 981.9766
0862 1421369140 983.1767
0863 1421373046 983.1462
0864 1421376953 983.8887
0865 1421380859 981.7220
0866 1421384765 981.9482
0867 1421388671 978.9521
0868 1421392578 979.0302
0869 1421396484 980.4568
0870 1421400390 975.7859
0871 1421404296 977.2684
0872 1421408203 977.2497
0873 1421412109 976.6786
0874 1421416015 974.2323
0875 1421419921 971.0922
0876 1421423828 974.2461
0877 1421427734 975.1841
0878 1421431640 973.2715
0879 1421435546 972.6616
0880 1421439453 973.4696
0881 1421443359 974.4690
0882 1421447265 971.1231
0883 1421451171 971.5793
0884 1421455078 972.4645
0885 1421458984 974.0179
0886 1421462890 974.0299
0887 1421466796 974.8916
0888 1421470703 977.0842
0889 1421474609 977.4123
0890 1421478515 977.1443
0891 1421482421 979.6278
0892 1421486328 981.0416
0893 1421490234 977.2053
0894 1421494140 982.4314
0895 1421498046 978.8325
0896 1421501953 982.4804
0897 1421505859 979.7244
0898 1421509765 984.3983
0899 1421513671 984.9509
0900 1421517578 981.6270
0901 1421521484 982.2188
0902 1421525390 985.9865
0903 1421529296 984.4008
0904 1421533203 985.0629
0905 1421537109 989.8628
0906 1421541015 989.2200
0907 1421544921 992.3247
0908 1421548828 992.2315
0909 1421552734 993.2419
0910 1421556640 996.2893
0911 1421560546 995.8088
0912 1421564453 999.9237
0913 1421568359 997.4958
0914 1421572265 998.6611
0915 1421576171 997.4063
0916 1421580078 1000.7672
0917 1421583984 1004.7917
0918 1421587890 1006.9349
0919 1421591796 1003.3741
0920 1421595703 1007.4063
0921 1421599609 1006.1196
0922 1421603515 1008.1864
0923 1421607421 1011.9485
0924 1421611328 1008.4737
0925 1421615234 1010.9427
0926 1421619140 1016.8158
0927 1421623046 1017.5678
0928 1421626953 1022.3986
0929 1421630859 1021.2672
0930 1421634765 1018.4610
0931 1421638671 1021.0530
0932 1421642578 1022.8422
0933 1421646484 1018.9452
0934 1421650390 1023.4105
0935 1421654296 1025.0304
0936 1421658203 1024.1996
0937 1421662109 1023.3403
0938 1421666015 1022.9744
0939 1421669921 1027.3456
0940 1421673828 1029.8948
0941 1421677734 1034.1301
0942 1421681640 1030.0120
0943 1421685546 1028.4365
0944 1421689453 1028.0967
0945 1421693359 1027.9590
0946 1421697265 1032.9373
0947 1421701171 1031.1716
0948 1421705078 1034.9374
0949 1421708984 1032.0026
0950 1421712890 1028.7849
0951 1421716796 1031.2382
0952 1421720703 1028.3491
0953 1421724609 1033.0168
0954 1421728515 1037.0262
0955 1421732421 1034.2249
0956 1421736328 1030.1216
0957 1421740234 1030.7650
0958 1421744140 1035.7146
0959 1421748046 1035.9900
0960 1421751953 1031.5133
0961 1421755859 1033.2616
0962 1421759765 1032.1793
0963 1421763671 1031.3508
0964 1421767578 1030.5427
0965 1421771484 1028.5577
0966 1421775390 1029.7689
0967 1421779296 1027.6212
0968 1421783203 1033.0386
0969 1421787109 1025.5530
0970 1421791015 1026.1011
0971 1421794921 1026.3604
0972 1421798828 1022.8546
0973 1421802734 1022.8900
0974 1421806640 1021.5117
0975 1421810546 1018.4189
0976 1421814453 1019.3033
0977 1421818359 1016.3646
0978 1421822265 1018.5457
0979 1421826171 1017.9600
0980 1421830078 1015.8360
0981 1421833984 1016.3279
0982 1421837890 1013.7271
0983 1421841796 1015.6476
0984 1421845703 1012.1640
0985 1421849609 1009.8231
0986 1421853515 1005.5809
0987 1421857421 1006.0027
0988 1421861328 1003.2440
0989 1421865234 1000.3561
0990 1421869140 1004.0922
0991 1421873046 1000.5052
0992 1421876953 1001.5241
0993 1421880859 999.2130
0994 1421884765 1000.3346
0995 1421888671 996.1851
0996 1421892578 994.8260
0997 1421896484 995.5273
0998 1421900390 994.4130
0999 1421904296 990.8090
1000 1421908203 991.2032
1001 1421912109 987.8793
1002 1421916015 989.5669
1003 1421919921 985.7577
1004 1421923828 986.4012
1005 1421927734 984.4926
1006 1421931640 984.1321
1007 1421935546 983.8957
1008 1421939453 982.5458
1009 1421943359 983.7007
1010 1421947265 982.2213
1011 1421951171 982.5566
1012 1421955078 983.5090
1013 1421958984 977.7584
1014 1421962890 976.4716
1015 1421966796 981.0399
1016 1421970703 979.3362
1017 1421974609 976.8563
1018 1421978515 976.9078
1019 1421982421 976.8423
1020 1421986328 976.6101
1021 1421990234 979.5321
1022 1421994140 982.8538
1023 1421998046 1014.2432
1024 1422001953 1096.0803
1025 1422005859 1014.0828
1026 1422009765 984.1631
1027 1422013671 984.9918
1028 1422017578 977.1902
1029 1422021484 978.5891
1030 1422025390 978.5759
1031 1422029296 975.8994
1032 1422033203 979.5273
1033 1422037109 981.2709
1034 1422041015 978.7342
1035 1422044921 980.3215
1036 1422048828 980.9189
1037 1422052734 983.1668
1038 1422056640 981.3174
1039 1422060546 977.6310
1040 1422064453 979.7205
1041 1422068359 981.4326
1042 1422072265 981.1954
1043 1422076171 982.7321
1044 1422080078 985.4846
1045 1422083984 983.5180
1046 1422087890 984.8760
1047 1422091796 983.7230
1048 1422095703 986.2335
1049 1422099609 988.3305
1050 1422103515 989.7889
1051 1422107421 987.2262
1052 1422111328 991.4672
1053 1422115234 991.8986
1054 1422119140 992.5333
1055 1422123046 995.4505
1056 1422126953 991.4056
1057 1422130859 996.4840
1058 1422134765 997.9208
1059 1422138671 995.6738
1060 1422142578 1000.7510
1061 1422146484 1002.2200
1062 1422150390 999.5754
1063 1422154296 1000.2086
1064 1422158203 1000.7587
1065 1422162109 1001.7599
1066 1422166015 1007.1666
1067 1422169921 1007.2153
1068 1422173828 1005.1702
1069 1422177734 1003.6507
1070 1422181640 1010.0576
1071 1422185546 1012.4674
1072 1422189453 1012.8309
1073 1422193359 1011.8748
1074 1422197265 1012.9203
1075 1422201171 1010.7810
1076 1422205078 1009.1726
1077 1422208984 1017.4213
1078 1422212890 1014.5043
1079 1422216796 1016.1576
1080 1422220703 1018.7492
1081 1422224609 1016.9505
1082 1422228515 1017.6899
1083 1422232421 1018.3952
1084 1422236328 1012.8890
1085 1422240234 1020.2505
1086 1422244140 1017.9007
1087 1422248046 1020.2822
1088 1422251953 1023.1151
1089 1422255859 1022.7111
1090 1422259765 1023.0706
1091 1422263671 1021.8102
1092 1422267578 1021.3007
1093 1422271484 1019.1576
1094 1422275390 1019.4678
1095 1422279296 1023.2115
1096 1422283203 1024.3845
1097 1422287109 1022.2127
1098 1422291015 1025.1600
1099 1422294921 1021.9907
1100 1422298828 1022.8298
1101 1422302734 1020.7063
1102 1422306640 1019.7488
1103 1422310546 1024.5074
1104 1422314453 1021.7532
1105 1422318359 1020.1929
1106 1422322265 1016.0603
1107 1422326171 1017.6556
1108 1422330078 1018.9623
1109 1422333984 1017.9883
1110 1422337890 1017.9980
1111 1422341796 1014.1504
1112 1422345703 1016.8071
1113 1422349609 1013.3666
1114 1422353515 1012.4298
1115 1422357421 1010.0324
1116 1422361328 1008.5192
1117 1422365234 1007.4462
1118 1422369140 1006.8704
1119 1422373046 1002.9728
1120 1422376953 1004.1235
1121 1422380859 1001.1143
1122 1422384765 1003.4355
1123 1422388671 1000.9434
1124 1422392578 1001.0284
1125 1422396484 997.9484
1126 1422400390 999.4721
1127 1422404296 999.3424
1128 1422408203 994.3312
1129 1422412109 991.9195
1130 1422416015 989.6194
1131 1422419921 989.5377
1132 1422423828 993.4108
1133 1422427734 988.6974
1134 1422431640 985.4180
1135 1422435546 986.9693
1136 1422439453 984.5315
1137 1422443359 979.5926
1138 1422447265 981.0457
1139 1422451171 981.1155
1140 1422455078 977.5662
1141 1422458984 976.4609
1142 1422462890 973.4086
1143 1422466796 973.7477
1144 1422470703 971.3881
1145 1422474609 970.8336
1146 1422478515 969.1991
1147 1422482421 972.6134
1148 1422486328 969.5812
1149 1422490234 968.7228
1150 1422494140 965.2119
1151 1422498046 964.8557
1152 1422501953 963.2848
1153 1422505859 965.8508
1154 1422509765 963.6253
1155 1422513671 961.0237
1156 1422517578 965.6141
1157 1422521484 965.5398
1158 1422525390 963.8712
1159 1422529296 961.5518
1160 1422533203 958.4146
1161 1422537109 964.8839
1162 1422541015 960.1246
1163 1422544921 963.2766
1164 1422548828 960.6208
1165 1422552734 960.6542
1166 1422556640 963.5031
1167 1422560546 960.4278
1168 1422564453 960.0519
1169 1422568359 958.7998
1170 1422572265 959.4275
1171 1422576171 956.8868
1172 1422580078 960.9857
1173 1422583984 961.2100
1174 1422587890 960.5728
1175 1422591796 956.7086
1176 1422595703 961.1818
1177 1422599609 960.4178
1178 1422603515 960.5065
1179 1422607421 957.8773
1180 1422611328 961.3665
1181 1422615234 963.2267
1182 1422619140 963.2335
1183 1422623046 963.5132
1184 1422626953 966.4413
1185 1422630859 967.0884
1186 1422634765 970.9317
1187 1422638671 966.8809
1188 1422642578 968.4371
1189 1422646484 966.5548
1190 1422650390 967.2429
1191 1422654296 969.5582
1192 1422658203 971.8182
1193 1422662109 970.1910
1194 1422666015 970.7808
1195 1422669921 969.7023
1196 1422673828 972.5383
1197 1422677734 972.5236
1198 1422681640 977.1340
1199 1422685546 977.2857
1200 1422689453 978.4970
1201 1422693359 979.7813
1202 1422697265 979.4732
1203 1422701171 978.4905
1204 1422705078 986.2320
1205 1422708984 982.3806
1206 1422712890 982.2262
1207 1422716796 987.6525
1208 1422720703 985.4957
1209 1422724609 986.7859
1210 1422728515 986.7695
1211 1422732421 989.1671
1212 1422736328 989.2715
1213 1422740234 984.9503
1214 1422744140 984.7153
1215 1422748046 987.9020
1216 1422751953 991.3539
1217 1422755859 990.3195
1218 1422759765 993.6367
1219 1422763671 989.4664
1220 1422767578 993.7039
1221 1422771484 996.7958
1222 1422775390 995.9593
1223 1422779296 995.2772
1224 1422783203 994.3425
1225 1422787109 994.3426
1226 1422791015 994.2096
1227 1422794921 998.9955
1228 1422798828 996.4125
1229 1422802734 995.0119
1230 1422806640 995.4417
1231 1422810546 997.1699
1232 1422814453 994.6727
1233 1422818359 994.5129
1234 1422822265 991.8822
1235 1422826171 992.6089
1236 1422830078 993.9241
1237 1422833984 994.3425
1238 1422837890 996.0460
1239 1422841796 994.8839
1240 1422845703 994.2441
1241 1422849609 993.2186
1242 1422853515 995.5182
1243 1422857421 993.4017
1244 1422861328 993.5891
1245 1422865234 995.4394
1246 1422869140 992.8650
1247 1422873046 993.7356
1248 1422876953 992.2657
1249 1422880859 991.5115
1250 1422884765 989.3492
1251 1422888671 987.4672
1252 1422892578 985.8174
1253 1422896484 987.1854
1254 1422900390 984.6400
1255 1422904296 988.1546
1256 1422908203 985.5158
1257 1422912109 985.0911
1258 1422916015 984.5386
1259 1422919921 981.3321
1260 1422923828 980.5547
1261 1422927734 983.9995
1262 1422931640 977.5919
1263 1422935546 978.5760
1264 1422939453 981.3317
1265 1422943359 980.5682
1266 1422947265 979.9294
1267 1422951171 975.0231
1268 1422955078 973.6345
1269 1422958984 971.0272
1270 1422962890 969.7861
1271 1422966796 973.0748
1272 1422970703 969.6604
1273 1422974609 970.7649
1274 1422978515 969.1838
1275 1422982421 967.9827
1276 1422986328 969.6545
1277 1422990234 968.7546
1278 1422994140 962.2324
1279 1422998046 961.5137
1280 1423001953 960.0139
1281 1423005859 962.2921
1282 1423009765 960.1616
1283 1423013671 958.8611
1284 1423017578 958.0423
1285 1423021484 957.9749
1286 1423025390 955.9246
1287 1423029296 956.1382
1288 1423033203 958.6058
1289 1423037109 954.5037
1290 1423041015 954.4291
1291 1423044921 951.6277
1292 1423048828 951.9528
1293 1423052734 952.0547
1294 1423056640 951.0647
1295 1423060546 947.4664
1296 1423064453 950.3016
1297 1423068359 947.9106
1298 1423072265 951.5611
1299 1423076171 947.6730
1300 1423080078 947.4336
1301 1423083984 948.7316
1302 1423087890 946.9217
1303 1423091796 947.2925
1304 1423095703 946.0683
1305 1423099609 944.9594
1306 1423103515 947.8848
1307 1423107421 943.2034
1308 1423111328 946.3669
1309 1423115234 946.0270
1310 1423119140 946.7075
1311 1423123046 942.6942
1312 1423126953 945.8520
1313 1423130859 946.2959
1314 1423134765 943.3325
1315 1423138671 946.6782
1316 1423142578 947.2505
1317 1423146484 945.1036
1318 1423150390 946.2210
1319 1423154296 947.6566
1320 1423158203 943.6877
1321 1423162109 945.4969
1322 1423166015 940.6201
1323 1423169921 943.7672
1324 1423173828 943.1461
1325 1423177734 947.3951
1326 1423181640 946.8408
1327 1423185546 945.6545
1328 1423189453 945.7844
1329 1423193359 946.2881
1330 1423197265 946.7540
1331 1423201171 948.8311
1332 1423205078 950.0660
1333 1423208984 949.9963
1334 1423212890 948.0978
1335 1423216796 950.4780
1336 1423220703 945.8787
1337 1423224609 953.9686
1338 1423228515 949.3123
1339 1423232421 951.9654
1340 1423236328 950.7764
1341 1423240234 952.4178
1342 1423244140 957.6252
1343 1423248046 956.8839
1344 1423251953 951.6022
1345 1423255859 954.6552
1346 1423259765 954.6054
1347 1423263671 953.1336
1348 1423267578 952.5670
1349 1423271484 953.0418
1350 1423275390 950.4181
1351 1423279296 959.1902
1352 1423283203 957.7093
1353 1423287109 958.9739
1354 1423291015 957.8843
1355 1423294921 960.5763
1356 1423298828 961.2505
1357 1423302734 961.6302
1358 1423306640 959.5689
1359 1423310546 957.4386
1360 1423314453 955.8934
1361 1423318359 960.0179
1362 1423322265 960.7887
1363 1423326171 962.4348
1364 1423330078 960.4613
1365 1423333984 960.4920
1366 1423337890 956.9300
1367 1423341796 959.2333
1368 1423345703 959.3776
1369 1423349609 961.8318
1370 1423353515 959.8448
1371 1423357421 964.1526
1372 1423361328 964.2477
1373 1423365234 961.5657
1374 1423369140 962.2385
1375 1423373046 963.8246
1376 1423376953 963.4451
1377 1423380859 960.8693
1378 1423384765 961.8702
1379 1423388671 965.1672
1380 1423392578 962.2036
1381 1423396484 960.3244
1382 1423400390 959.1125
1383 1423404296 961.8016
1384 1423408203 962.5732
1385 1423412109 961.4871
1386 1423416015 960.6647
1387 1423419921 958.1945
1388 1423423828 959.0605
1389 1423427734 962.0970
1390 1423431640 960.1623
1391 1423435546 959.4033
1392 1423439453 964.1237
1393 1423443359 964.6083
1394 1423447265 961.0317
1395 1423451171 957.4001
1396 1423455078 958.3364
1397 1423458984 957.9982
1398 1423462890 959.1694
1399 1423466796 957.3289
1400 1423470703 956.7664
1401 1423474609 956.7306
1402 1423478515 962.9754
1403 1423482421 957.8109
1404 1423486328 958.1217
1405 1423490234 958.1593
1406 1423494140 956.0946
1407 1423498046 957.9106
1408 1423501953 959.6823
1409 1423505859 957.5253
1410 1423509765 955.1762
1411 1423513671 957.0874
1412 1423517578 955.6621
1413 1423521484 953.1003
1414 1423525390 958.4081
1415 1423529296 957.5141
1416 1423533203 956.4228
1417 1423537109 958.1873
1418 1423541015 957.9903
1419 1423544921 955.8128
1420 1423548828 955.3608
1421 1423552734 956.6859
1422 1423556640 956.2461
1423 1423560546 956.0527
1424 1423564453 957.0251
1425 1423568359 961.0900
1426 1423572265 962.0300
1427 1423576171 959.1627
1428 1423580078 958.4967
1429 1423583984 959.5289
1430 1423587890 959.4123
1431 1423591796 958.4548
1432 1423595703 957.3973
1433 1423599609 959.0067
1434 1423603515 960.5396
1435 1423607421 959.4850
1436 1423611328 960.8099
1437 1423615234 959.4057
1438 1423619140 960.0607
1439 1423623046 962.2233
1440 1423626953 958.7319
1441 1423630859 960.0062
1442 1423634765 959.8555
1443 1423638671 961.6456
1444 1423642578 966.8320
1445 1423646484 963.4498
1446 1423650390 962.4357
1447 1423654296 959.3654
1448 1423658203 965.9439
1449 1423662109 967.1236
1450 1423666015 967.1004
1451 1423669921 963.9637
1452 1423673828 967.3001
1453 1423677734 968.0009
1454 1423681640 967.9166
1455 1423685546 969.7442
1456 1423689453 968.7638
1457 1423693359 969.0994
1458 1423697265 973.1791
1459 1423701171 972.9761
1460 1423705078 972.3029
1461 1423708984 968.9234
1462 1423712890 969.0845
1463 1423716796 973.0955
1464 1423720703 974.8453
1465 1423724609 975.9029
1466 1423728515 976.3034
1467 1423732421 973.4854
1468 1423736328 975.3845
1469 1423740234 972.1948
1470 1423744140 973.4898
1471 1423748046 974.3039
1472 1423751953 974.2379
1473 1423755859 979.7469
1474 1423759765 980.8040
1475 1423763671 981.3047
1476 1423767578 981.5700
1477 1423771484 980.8760
1478 1423775390 977.5663
1479 1423779296 978.9547
1480 1423783203 981.7072
1481 1423787109 981.9191
1482 1423791015 982.1735
1483 1423794921 981.8260
1484 1423798828 981.5054
1485 1423802734 984.8253
1486 1423806640 983.0847
1487 1423810546 984.2047
1488 1423814453 983.5573
1489 1423818359 984.4591
1490 1423822265 984.4767
1491 1423826171 984.2559
1492 1423830078 988.5485
1493 1423833984 983.6100
1494 1423837890 986.7032
1495 1423841796 990.3560
1496 1423845703 981.6124
1497 1423849609 983.1053
1498 1423853515 985.7167
1499 1423857421 986.7900
1500 1423861328 987.0112
1501 1423865234 987.8737
1502 1423869140 987.5774
1503 1423873046 980.0905
1504 1423876953 988.7097
1505 1423880859 987.7108
1506 1423884765 988.1459
1507 1423888671 982.8231
1508 1423892578 983.1782
1509 1423896484 984.0474
1510 1423900390 990.1787
1511 1423904296 984.1713
1512 1423908203 985.9713
1513 1423912109 986.0455
1514 1423916015 986.9218
1515 1423919921 985.8568
1516 1423923828 984.1537
1517 1423927734 984.5051
1518 1423931640 985.7692
1519 1423935546 987.0529
1520 1423939453 987.1125
1521 1423943359 982.4219
1522 1423947265 980.9436
1523 1423951171 981.3236
1524 1423955078 985.8541
1525 1423958984 982.5368
1526 1423962890 984.5331
1527 1423966796 985.9811
1528 1423970703 983.4199
1529 1423974609 982.9706
1530 1423978515 981.9646
1531 1423982421 985.5005
1532 1423986328 980.0402
1533 1423990234 981.0499
1534 1423994140 984.5379
1535 1423998046 980.4236
1536 1424001953 990.6531
1537 1424005859 981.9639
1538 1424009765 982.9189
1539 1424013671 984.8576
1540 1424017578 981.5897
1541 1424021484 981.1637
1542 1424025390 981.5291
1543 1424029296 978.2998
1544 1424033203 980.9286
1545 1424037109 984.2352
1546 1424041015 982.3691
1547 1424044921 982.6107
1548 1424048828 980.9769
1549 1424052734 981.9537
1550 1424056640 983.7455
1551 1424060546 983.5655
1552 1424064453 984.8662
1553 1424068359 984.9153
1554 1424072265 981.4388
1555 1424076171 980.7120
1556 1424080078 983.6004
1557 1424083984 982.8712
1558 1424087890 984.1236
1559 1424091796 987.2800
1560 1424095703 984.8680
1561 1424099609 981.5372
1562 1424103515 989.9333
1563 1424107421 986.1453
1564 1424111328 988.9863
1565 1424115234 987.3144
1566 1424119140 986.7024
1567 1424123046 989.6550
1568 1424126953 984.9886
1569 1424130859 988.7220
1570 1424134765 989.3227
1571 1424138671 988.3523
1572 1424142578 992.7799
1573 1424146484 990.9929
1574 1424150390 991.8533
1575 1424154296 990.7270
1576 1424158203 992.0052
1577 1424162109 992.7818
1578 1424166015 994.8148
1579 1424169921 994.6160
1580 1424173828 996.7739
1581 1424177734 995.8676
1582 1424181640 997.0802
1583 1424185546 997.2549
1584 1424189453 995.2650
1585 1424193359 997.2493
1586 1424197265 1002.6419
1587 1424201171 1001.2103
1588 1424205078 1004.8476
1589 1424208984 1004.5759
1590 1424212890 1009.0035
1591 1424216796 1007.9421
1592 1424220703 1006.3476
1593 1424224609 1007.5687
1594 1424228515 1007.3005
1595 1424232421 1008.1743
1596 1424236328 1012.2031
1597 1424240234 1015.5184
1598 1424244140 1013.7178
1599 1424248046 1006.0031
1600 1424251953 1012.0587
1601 1424255859 1012.4581
1602 1424259765 1014.5338
1603 1424263671 1014.7847
1604 1424267578 1013.9123
1605 1424271484 1021.3867
1606 1424275390 1020.3588
1607 1424279296 1021.4452
1608 1424283203 1019.2570
1609 1424287109 1018.5691
1610 1424291015 1017.4626
1611 1424294921 1020.7358
1612 1424298828 1021.8816
1613 1424302734 1020.0539
1614 1424306640 1021.7469
1615 1424310546 1022.0424
1616 1424314453 1024.3893
1617 1424318359 1023.2978
1618 1424322265 1022.8434
1619 1424326171 1024.6263
1620 1424330078 1025.6903
1621 1424333984 1026.2881
1622 1424337890 1025.6375
1623 1424341796 1023.9670
1624 1424345703 1026.4088
1625 1424349609 1025.1001
1626 1424353515 1025.0507
1627 1424357421 1027.1897
1628 1424361328 1025.7683
1629 1424365234 1028.4061
1630 1424369140 1030.4794
1631 1424373046 1029.3228
1632 1424376953 1026.7887
1633 1424380859 1027.5117
1634 1424384765 1029.8137
1635 1424388671 1030.6941
1636 1424392578 1025.9021
1637 1424396484 1026.9065
1638 1424400390 1027.7711
1639 1424404296 1028.2179
1640 1424408203 1030.8577
1641 1424412109 1028.8470
1642 1424416015 1032.7047
1643 1424419921 1026.8774
1644 1424423828 1033.1991
1645 1424427734 1030.7356
1646 1424431640 1027.6869
1647 1424435546 1032.6138
1648 1424439453 1031.6951
1649 1424443359 1027.2979
1650 1424447265 1023.9210
1651 1424451171 1027.6348
1652 1424455078 1033.3231
1653 1424458984 1031.4434
1654 1424462890 1025.2332
1655 1424466796 1029.5854
1656 1424470703 1025.1770
1657 1424474609 1027.0138
1658 1424478515 1025.4436
1659 1424482421 1026.2914
1660 1424486328 1030.0339
1661 1424490234 1027.3772
1662 1424494140 1025.8632
1663 1424498046 1026.5393
1664 1424501953 1024.5967
1665 1424505859 1021.8977
1666 1424509765 1025.4799
1667 1424513671 1024.3499
1668 1424517578 1026.0695
1669 1424521484 1021.4040
1670 1424525390 1024.7719
1671 1424529296 1026.7812
1672 1424533203 1024.4938
1673 1424537109 1024.8698
1674 1424541015 1021.4410
1675 1424544921 1021.7051
1676 1424548828 1019.9340
1677 1424552734 1019.9764
1678 1424556640 1023.0181
1679 1424560546 1022.2016
1680 1424564453 1024.6237
1681 1424568359 1026.1212
1682 1424572265 1021.2010
1683 1424576171 1020.2081
1684 1424580078 1023.1227
1685 1424583984 1019.7473
1686 1424587890 1021.0360
1687 1424591796 1022.2566
1688 1424595703 1020.0960
1689 1424599609 1022.3777
1690 1424603515 1024.3129
1691 1424607421 1021.4111
1692 1424611328 1018.9190
1693 1424615234 1020.0625
1694 1424619140 1023.7269
1695 1424623046 1021.5876
1696 1424626953 1018.0565
1697 1424630859 1020.4577
1698 1424634765 1017.1954
1699 1424638671 1019.0336
1700 1424642578 1020.4661
1701 1424646484 1018.7784
1702 1424650390 1016.0063
1703 1424654296 1017.9954
1704 1424658203 1015.9480
1705 1424662109 1015.9161
1706 1424666015 1013.6427
1707 1424669921 1016.2159
1708 1424673828 1014.3969
1709 1424677734 1013.6667
1710 1424681640 1013.8968
1711 1424685546 1012.5732
1712 1424689453 1012.0986
1713 1424693359 1009.8255
1714 1424697265 1009.5801
1715 1424701171 1007.6613
1716 1424705078 1009.4553
1717 1424708984 1008.2429
1718 1424712890 1011.2243
1719 1424716796 1007.0742
1720 1424720703 1006.2623
1721 1424724609 1006.1213
1722 1424728515 1007.6791
1723 1424732421 1006.5385
1724 1424736328 1000.5031
1725 1424740234 1002.5474
1726 1424744140 1002.6527
1727 1424748046 1003.1220
1728 1424751953 996.9422
1729 1424755859 1001.0410
1730 1424759765 1000.7615
1731 1424763671 996.3548
1732 1424767578 994.3159
1733 1424771484 993.0842
1734 1424775390 990.1330
1735 1424779296 992.7090
1736 1424783203 992.4543
1737 1424787109 991.1332
1738 1424791015 987.4151
1739 1424794921 988.4424
1740 1424798828 985.4285
1741 1424802734 985.0719
1742 1424806640 985.5311
1743 1424810546 983.7802
1744 1424814453 980.1425
1745 1424818359 976.5611
1746 1424822265 975.8500
1747 1424826171 974.9935
1748 1424830078 976.6711
1749 1424833984 974.5873
1750 1424837890 971.7386
1751 1424841796 973.3450
1752 1424845703 970.6056
1753 1424849609 968.7722
1754 1424853515 965.0958
1755 1424857421 962.5830
1756 1424861328 963.0755
1757 1424865234 963.7115
1758 1424869140 958.8347
1759 1424873046 958.1699
1760 1424876953 955.9269
1761 1424880859 958.2004
1762 1424884765 957.1572
1763 1424888671 955.1863
1764 1424892578 947.4698
1765 1424896484 949.5502
1766 1424900390 949.7382
1767 1424904296 952.8447
1768 1424908203 949.4310
1769 1424912109 946.2047
1770 1424916015 946.6821
1771 1424919921 946.0494
1772 1424923828 942.8613
1773 1424927734 946.1523
1774 1424931640 943.8275
1775 1424935546 943.2572
1776 1424939453 944.9351
1777 1424943359 943.1677
1778 1424947265 941.3516
1779 1424951171 942.4229
1780 1424955078 939.9055
1781 1424958984 943.6429
1782 1424962890 941.5649
1783 1424966796 936.8282
1784 1424970703 936.1360
1785 1424974609 936.0356
1786 1424978515 939.6431
1787 1424982421 940.4818
1788 1424986328 938.6062
1789 1424990234 941.0015
1790 1424994140 942.4056
1791 1424998046 939.4684
1792 1425001953 948.9456
1793 1425005859 990.8431
1794 1425009765 987.2755
1795 1425013671 943.9612
1796 1425017578 943.5684
1797 1425021484 945.9379
1798 1425025390 946.7784
1799 1425029296 944.7198
1800 1425033203 945.8763
1801 1425037109 947.6293
1802 1425041015 947.1837
1803 1425044921 950.4749
1804 1425048828 954.5308
1805 1425052734 957.7227
1806 1425056640 956.5640
1807 1425060546 958.9203
1808 1425064453 962.7551
1809 1425068359 960.8053
1810 1425072265 966.2297
1811 1425076171 969.4476
1812 1425080078 969.5394
1813 1425083984 973.9742
1814 1425087890 976.7616
1815 1425091796 974.3566
1816 1425095703 981.9011
1817 1425099609 982.2943
1818 1425103515 985.4222
1819 1425107421 989.2177
1820 1425111328 990.7424
1821 1425115234 991.7507
1822 1425119140 1000.4618
1823 1425123046 1001.3723
1824 1425126953 1006.5848
1825 1425130859 1008.4196
1826 1425134765 1007.7408
1827 1425138671 1011.8096
1828 1425142578 1018.3271
1829 1425146484 1021.5217
1830 1425150390 1019.1662
1831 1425154296 1024.4919
1832 1425158203 1028.5671
1833 1425162109 1031.1868
1834 1425166015 1036.1014
1835 1425169921 1035.5890
1836 1425173828 1038.2976
1837 1425177734 1038.5776
1838 1425181640 1044.6646
1839 1425185546 1046.1812
1840 1425189453 1048.8370
1841 1425193359 1056.6150
1842 1425197265 1054.3503
1843 1425201171 1054.3787
1844 1425205078 1061.2693
1845 1425208984 1060.3380
1846 1425212890 1059.0996
1847 1425216796 1063.0291
1848 1425220703 1066.7052
1849 1425224609 1066.7238
1850 1425228515 1067.8839
1851 1425232421 1067.8455
1852 1425236328 1066.0188
1853 1425240234 1068.4832
1854 1425244140 1068.2756
1855 1425248046 1069.1471
1856 1425251953 1067.4003
1857 1425255859 1065.9446
1858 1425259765 1065.3527
1859 1425263671 1061.9591
1860 1425267578 1058.6078
1861 1425271484 1063.1703
1862 1425275390 1052.6123
1863 1425279296 1052.2350
1864 1425283203 1050.0405
1865 1425287109 1049.8948
1866 1425291015 1045.8278
1867 1425294921 1041.1918
1868 1425298828 1040.7582
1869 1425302734 1031.4746
1870 1425306640 1026.0630
1871 1425310546 1018.1190
1872 1425314453 1011.1132
1873 1425318359 1003.2209
1874 1425322265 1000.1236
1875 1425326171 991.5065
1876 1425330078 980.4183
1877 1425333984 974.6910
1878 1425337890 971.3272
1879 1425341796 958.3218
1880 1425345703 948.9450
1881 1425349609 945.1541
1882 1425353515 931.1574
1883 1425357421 923.3710
1884 1425361328 911.2277
1885 1425365234 902.6415
1886 1425369140 890.9252
1887 1425373046 877.1993
1888 1425376953 867.1875
1889 1425380859 851.4052
1890 1425384765 838.7127
1891 1425388671 826.8337
1892 1425392578 816.7515
1893 1425396484 803.8769
1894 1425400390 790.4437
1895 1425404296 775.1373
1896 1425408203 761.5234
1897 1425412109 744.6451
1898 1425416015 731.5267
1899 1425419921 716.3137
1900 1425423828 703.7527
1901 1425427734 684.8931
1902 1425431640 670.2639
1903 1425435546 653.7037
1904 1425439453 640.0462
1905 1425443359 624.5837
1906 1425447265 610.0397
1907 1425451171 594.2415
1908 1425455078 577.7937
1909 1425458984 562.4785
1910 1425462890 546.8846
1911 1425466796 531.6923
1912 1425470703 514.3901
1913 1425474609 500.2226
1914 1425478515 486.0858
1915 1425482421 470.1463
1916 1425486328 456.1535
1917 1425490234 439.0970
1918 1425494140 425.9105
1919 1425498046 410.2993
1920 1425501953 392.5641
1921 1425505859 380.5307
1922 1425509765 365.8029
1923 1425513671 351.3381
1924 1425517578 338.2348
1925 1425521484 324.0899
1926 1425525390 310.7913
1927 1425529296 296.9196
1928 1425533203 284.0823
1929 1425537109 271.5018
1930 1425541015 257.8604
1931 1425544921 246.7241
1932 1425548828 234.8595
1933 1425552734 223.4602
1934 1425556640 213.3643
1935 1425560546 201.7992
1936 1425564453 191.1672
1937 1425568359 181.0780
1938 1425572265 171.1579
1939 1425576171 161.7982
1940 1425580078 152.6340
1941 1425583984 144.0315
1942 1425587890 134.9219
1943 1425591796 127.2283
1944 1425595703 119.3820
1945 1425599609 111.9495
1946 1425603515 104.9207
1947 1425607421 97.8786
1948 1425611328 91.2883
1949 1425615234 85.0136
1950 1425619140 79.1040
1951 1425623046 73.1731
1952 1425626953 68.0622
1953 1425630859 63.0890
1954 1425634765 58.3539
1955 1425638671 53.8238
1956 1425642578 49.5472
1957 1425646484 45.2116
1958 1425650390 41.3465
1959 1425654296 37.8093
1960 1425658203 34.6430
1961 1425662109 31.4601
1962 1425666015 28.5234
1963 1425669921 25.9290
1964 1425673828 23.4891
1965 1425677734 21.1131
1966 1425681640 19.0015
1967 1425685546 16.9881
1968 1425689453 15.1780
1969 1425693359 13.4968
1970 1425697265 11.9855
1971 1425701171 10.5959
1972 1425705078 9.2927
1973 1425708984 8.1733
1974 1425712890 7.1275
1975 1425716796 6.1626
1976 1425720703 5.3386
1977 1425724609 4.5894
1978 1425728515 3.9044
1979 1425732421 3.3032
1980 1425736328 2.7692
1981 1425740234 2.3037
1982 1425744140 1.9044
1983 1425748046 1.5503
1984 1425751953 1.2418
1985 1425755859 0.9860
1986 1425759765 0.7651
1987 1425763671 0.5840
1988 1425767578 0.4347
1989 1425771484 0.3139
1990 1425775390 0.2195
1991 1425779296 0.1467
1992 1425783203 0.0945
1993 1425787109 0.0596
1994 1425791015 0.0396
1995 1425794921 0.0324
1996 1425798828 0.0363
1997 1425802734 0.0492
1998 1425806640 0.0697
1999 1425810546 0.0963
2000 1425814453 0.1275
2001 1425818359 0.1632
2002 1425822265 0.2004
2003 1425826171 0.2408
2004 1425830078 0.2811
2005 1425833984 0.3222
2006 1425837890 0.3625
2007 1425841796 0.4049
2008 1425845703 0.4406
2009 1425849609 0.4795
2010 1425853515 0.5163
2011 1425857421 0.5489
2012 1425861328 0.5838
2013 1425865234 0.6137
2014 1425869140 0.6431
2015 1425873046 0.6706
2016 1425876953 0.6914
2017 1425880859 0.7102
2018 1425884765 0.7336
2019 1425888671 0.7499
2020 1425892578 0.7634
2021 1425896484 0.7808
2022 1425900390 0.7909
2023 1425904296 0.8023
2024 1425908203 0.8097
2025 1425912109 0.8202
2026 1425916015 0.8285
2027 1425919921 0.8325
2028 1425923828 0.8371
2029 1425927734 0.8410
2030 1425931640 0.8417
2031 1425935546 0.8459
2032 1425939453 0.8423
2033 1425943359 0.8432
2034 1425947265 0.8443
2035 1425951171 0.8444
2036 1425955078 0.8410
2037 1425958984 0.8439
2038 1425962890 0.8436
2039 1425966796 0.8433
2040 1425970703 0.8425
2041 1425974609 0.8453
2042 1425978515 0.8413
2043 1425982421 0.8381
2044 1425986328 0.8406
2045 1425990234 0.8403
2046 1425994140 0.8398
2047 1425998046 0.8439
